subj,session,trial,rt,object_response,category,condition,imagename
AlexNet_topK_5,1,1,NaN,bottle,airplane,NaN,airplane1-bicycle2.png
AlexNet_topK_5,1,2,NaN,dog,airplane,NaN,airplane1-chair2.png
AlexNet_topK_5,1,3,NaN,dog,airplane,NaN,airplane1-clock1.png
AlexNet_topK_5,1,4,NaN,bird,airplane,NaN,airplane1-elephant1.png
AlexNet_topK_5,1,5,NaN,cat,airplane,NaN,airplane10-airplane1.png
AlexNet_topK_5,1,6,NaN,car,airplane,NaN,airplane10-bear3.png
AlexNet_topK_5,1,7,NaN,airplane,airplane,NaN,airplane10-boat3.png
AlexNet_topK_5,1,8,NaN,airplane,airplane,NaN,airplane10-car3.png
AlexNet_topK_5,1,9,NaN,cat,airplane,NaN,airplane10-cat2.png
AlexNet_topK_5,1,10,NaN,bird,airplane,NaN,airplane10-dog3.png
AlexNet_topK_5,1,11,NaN,bird,airplane,NaN,airplane10-elephant1.png
AlexNet_topK_5,1,12,NaN,airplane,airplane,NaN,airplane10-knife3.png
AlexNet_topK_5,1,13,NaN,cat,airplane,NaN,airplane10-oven2.png
AlexNet_topK_5,1,14,NaN,clock,airplane,NaN,airplane10-truck1.png
AlexNet_topK_5,1,15,NaN,cat,airplane,NaN,airplane2-bear1.png
AlexNet_topK_5,1,16,NaN,airplane,airplane,NaN,airplane2-bicycle1.png
AlexNet_topK_5,1,17,NaN,airplane,airplane,NaN,airplane2-bird3.png
AlexNet_topK_5,1,18,NaN,cat,airplane,NaN,airplane2-bottle1.png
AlexNet_topK_5,1,19,NaN,oven,airplane,NaN,airplane2-cat1.png
AlexNet_topK_5,1,20,NaN,cat,airplane,NaN,airplane2-dog1.png
AlexNet_topK_5,1,21,NaN,cat,airplane,NaN,airplane3-airplane2.png
AlexNet_topK_5,1,22,NaN,dog,airplane,NaN,airplane3-car1.png
AlexNet_topK_5,1,23,NaN,airplane,airplane,NaN,airplane3-cat1.png
AlexNet_topK_5,1,24,NaN,knife,airplane,NaN,airplane3-chair3.png
AlexNet_topK_5,1,25,NaN,cat,airplane,NaN,airplane3-clock1.png
AlexNet_topK_5,1,26,NaN,cat,airplane,NaN,airplane3-dog1.png
AlexNet_topK_5,1,27,NaN,chair,airplane,NaN,airplane3-elephant1.png
AlexNet_topK_5,1,28,NaN,dog,airplane,NaN,airplane3-keyboard2.png
AlexNet_topK_5,1,29,NaN,bird,airplane,NaN,airplane3-oven1.png
AlexNet_topK_5,1,30,NaN,cat,airplane,NaN,airplane4-airplane1.png
AlexNet_topK_5,1,31,NaN,cat,airplane,NaN,airplane4-bear3.png
AlexNet_topK_5,1,32,NaN,cat,airplane,NaN,airplane4-bicycle2.png
AlexNet_topK_5,1,33,NaN,airplane,airplane,NaN,airplane4-bird3.png
AlexNet_topK_5,1,34,NaN,knife,airplane,NaN,airplane4-boat3.png
AlexNet_topK_5,1,35,NaN,dog,airplane,NaN,airplane4-bottle1.png
AlexNet_topK_5,1,36,NaN,knife,airplane,NaN,airplane4-car1.png
AlexNet_topK_5,1,37,NaN,bird,airplane,NaN,airplane4-cat3.png
AlexNet_topK_5,1,38,NaN,elephant,airplane,NaN,airplane4-dog2.png
AlexNet_topK_5,1,39,NaN,cat,airplane,NaN,airplane4-elephant1.png
AlexNet_topK_5,1,40,NaN,oven,airplane,NaN,airplane4-keyboard3.png
AlexNet_topK_5,1,41,NaN,cat,airplane,NaN,airplane4-knife1.png
AlexNet_topK_5,1,42,NaN,keyboard,airplane,NaN,airplane4-truck2.png
AlexNet_topK_5,1,43,NaN,cat,airplane,NaN,airplane5-bear2.png
AlexNet_topK_5,1,44,NaN,airplane,airplane,NaN,airplane5-bicycle1.png
AlexNet_topK_5,1,45,NaN,cat,airplane,NaN,airplane5-bird2.png
AlexNet_topK_5,1,46,NaN,dog,airplane,NaN,airplane5-boat3.png
AlexNet_topK_5,1,47,NaN,cat,airplane,NaN,airplane5-bottle3.png
AlexNet_topK_5,1,48,NaN,cat,airplane,NaN,airplane5-chair3.png
AlexNet_topK_5,1,49,NaN,airplane,airplane,NaN,airplane5-dog3.png
AlexNet_topK_5,1,50,NaN,cat,airplane,NaN,airplane5-knife1.png
AlexNet_topK_5,1,51,NaN,cat,airplane,NaN,airplane5-oven3.png
AlexNet_topK_5,1,52,NaN,cat,airplane,NaN,airplane6-bear3.png
AlexNet_topK_5,1,53,NaN,cat,airplane,NaN,airplane6-bottle2.png
AlexNet_topK_5,1,54,NaN,cat,airplane,NaN,airplane6-chair3.png
AlexNet_topK_5,1,55,NaN,cat,airplane,NaN,airplane6-keyboard3.png
AlexNet_topK_5,1,56,NaN,cat,airplane,NaN,airplane6-knife1.png
AlexNet_topK_5,1,57,NaN,cat,airplane,NaN,airplane7-airplane3.png
AlexNet_topK_5,1,58,NaN,oven,airplane,NaN,airplane7-bird3.png
AlexNet_topK_5,1,59,NaN,oven,airplane,NaN,airplane7-boat2.png
AlexNet_topK_5,1,60,NaN,bottle,airplane,NaN,airplane7-bottle3.png
AlexNet_topK_5,1,61,NaN,cat,airplane,NaN,airplane7-car1.png
AlexNet_topK_5,1,62,NaN,dog,airplane,NaN,airplane7-cat3.png
AlexNet_topK_5,1,63,NaN,cat,airplane,NaN,airplane7-clock3.png
AlexNet_topK_5,1,64,NaN,cat,airplane,NaN,airplane7-keyboard1.png
AlexNet_topK_5,1,65,NaN,bicycle,airplane,NaN,airplane7-truck1.png
AlexNet_topK_5,1,66,NaN,dog,airplane,NaN,airplane8-bicycle3.png
AlexNet_topK_5,1,67,NaN,cat,airplane,NaN,airplane8-bird1.png
AlexNet_topK_5,1,68,NaN,cat,airplane,NaN,airplane8-chair1.png
AlexNet_topK_5,1,69,NaN,dog,airplane,NaN,airplane8-clock2.png
AlexNet_topK_5,1,70,NaN,bottle,airplane,NaN,airplane8-elephant3.png
AlexNet_topK_5,1,71,NaN,bird,airplane,NaN,airplane8-oven2.png
AlexNet_topK_5,1,72,NaN,cat,airplane,NaN,airplane8-truck3.png
AlexNet_topK_5,1,73,NaN,cat,airplane,NaN,airplane9-airplane2.png
AlexNet_topK_5,1,74,NaN,cat,airplane,NaN,airplane9-boat1.png
AlexNet_topK_5,1,75,NaN,keyboard,airplane,NaN,airplane9-car2.png
AlexNet_topK_5,1,76,NaN,cat,airplane,NaN,airplane9-clock1.png
AlexNet_topK_5,1,77,NaN,dog,airplane,NaN,airplane9-keyboard2.png
AlexNet_topK_5,1,78,NaN,elephant,airplane,NaN,airplane9-knife3.png
AlexNet_topK_5,1,79,NaN,dog,airplane,NaN,airplane9-oven2.png
AlexNet_topK_5,1,80,NaN,clock,airplane,NaN,airplane9-truck1.png
AlexNet_topK_5,1,81,NaN,oven,bear,NaN,bear1-airplane3.png
AlexNet_topK_5,1,82,NaN,oven,bear,NaN,bear1-bear3.png
AlexNet_topK_5,1,83,NaN,dog,bear,NaN,bear1-bicycle3.png
AlexNet_topK_5,1,84,NaN,cat,bear,NaN,bear1-bird2.png
AlexNet_topK_5,1,85,NaN,bottle,bear,NaN,bear1-chair2.png
AlexNet_topK_5,1,86,NaN,oven,bear,NaN,bear1-clock2.png
AlexNet_topK_5,1,87,NaN,cat,bear,NaN,bear1-elephant1.png
AlexNet_topK_5,1,88,NaN,elephant,bear,NaN,bear10-bear2.png
AlexNet_topK_5,1,89,NaN,keyboard,bear,NaN,bear10-bottle1.png
AlexNet_topK_5,1,90,NaN,cat,bear,NaN,bear10-car2.png
AlexNet_topK_5,1,91,NaN,cat,bear,NaN,bear10-cat2.png
AlexNet_topK_5,1,92,NaN,dog,bear,NaN,bear10-chair2.png
AlexNet_topK_5,1,93,NaN,cat,bear,NaN,bear10-clock1.png
AlexNet_topK_5,1,94,NaN,cat,bear,NaN,bear10-elephant1.png
AlexNet_topK_5,1,95,NaN,cat,bear,NaN,bear10-keyboard3.png
AlexNet_topK_5,1,96,NaN,cat,bear,NaN,bear10-knife2.png
AlexNet_topK_5,1,97,NaN,bird,bear,NaN,bear10-oven1.png
AlexNet_topK_5,1,98,NaN,chair,bear,NaN,bear10-truck1.png
AlexNet_topK_5,1,99,NaN,oven,bear,NaN,bear2-airplane1.png
AlexNet_topK_5,1,100,NaN,cat,bear,NaN,bear2-bird3.png
AlexNet_topK_5,1,101,NaN,bottle,bear,NaN,bear2-car2.png
AlexNet_topK_5,1,102,NaN,cat,bear,NaN,bear2-cat2.png
AlexNet_topK_5,1,103,NaN,bird,bear,NaN,bear2-dog1.png
AlexNet_topK_5,1,104,NaN,bird,bear,NaN,bear2-elephant1.png
AlexNet_topK_5,1,105,NaN,cat,bear,NaN,bear2-keyboard2.png
AlexNet_topK_5,1,106,NaN,bottle,bear,NaN,bear2-knife2.png
AlexNet_topK_5,1,107,NaN,cat,bear,NaN,bear2-oven1.png
AlexNet_topK_5,1,108,NaN,cat,bear,NaN,bear3-airplane1.png
AlexNet_topK_5,1,109,NaN,bird,bear,NaN,bear3-bicycle2.png
AlexNet_topK_5,1,110,NaN,elephant,bear,NaN,bear3-bird3.png
AlexNet_topK_5,1,111,NaN,dog,bear,NaN,bear3-car2.png
AlexNet_topK_5,1,112,NaN,cat,bear,NaN,bear3-cat1.png
AlexNet_topK_5,1,113,NaN,cat,bear,NaN,bear3-chair2.png
AlexNet_topK_5,1,114,NaN,cat,bear,NaN,bear3-dog3.png
AlexNet_topK_5,1,115,NaN,cat,bear,NaN,bear3-keyboard2.png
AlexNet_topK_5,1,116,NaN,dog,bear,NaN,bear3-truck3.png
AlexNet_topK_5,1,117,NaN,oven,bear,NaN,bear4-boat2.png
AlexNet_topK_5,1,118,NaN,bird,bear,NaN,bear4-car3.png
AlexNet_topK_5,1,119,NaN,bear,bear,NaN,bear4-cat3.png
AlexNet_topK_5,1,120,NaN,cat,bear,NaN,bear4-clock3.png
AlexNet_topK_5,1,121,NaN,cat,bear,NaN,bear4-elephant2.png
AlexNet_topK_5,1,122,NaN,cat,bear,NaN,bear4-keyboard3.png
AlexNet_topK_5,1,123,NaN,cat,bear,NaN,bear4-knife1.png
AlexNet_topK_5,1,124,NaN,cat,bear,NaN,bear4-oven2.png
AlexNet_topK_5,1,125,NaN,bottle,bear,NaN,bear4-truck3.png
AlexNet_topK_5,1,126,NaN,oven,bear,NaN,bear5-airplane3.png
AlexNet_topK_5,1,127,NaN,cat,bear,NaN,bear5-bicycle3.png
AlexNet_topK_5,1,128,NaN,bird,bear,NaN,bear5-bird1.png
AlexNet_topK_5,1,129,NaN,cat,bear,NaN,bear5-boat2.png
AlexNet_topK_5,1,130,NaN,cat,bear,NaN,bear5-bottle1.png
AlexNet_topK_5,1,131,NaN,bottle,bear,NaN,bear5-chair1.png
AlexNet_topK_5,1,132,NaN,dog,bear,NaN,bear5-oven3.png
AlexNet_topK_5,1,133,NaN,elephant,bear,NaN,bear6-bear1.png
AlexNet_topK_5,1,134,NaN,cat,bear,NaN,bear6-bird2.png
AlexNet_topK_5,1,135,NaN,cat,bear,NaN,bear6-boat3.png
AlexNet_topK_5,1,136,NaN,bottle,bear,NaN,bear6-bottle3.png
AlexNet_topK_5,1,137,NaN,cat,bear,NaN,bear6-car2.png
AlexNet_topK_5,1,138,NaN,bird,bear,NaN,bear6-cat3.png
AlexNet_topK_5,1,139,NaN,bear,bear,NaN,bear6-chair1.png
AlexNet_topK_5,1,140,NaN,cat,bear,NaN,bear6-clock1.png
AlexNet_topK_5,1,141,NaN,cat,bear,NaN,bear7-bear2.png
AlexNet_topK_5,1,142,NaN,cat,bear,NaN,bear7-bicycle2.png
AlexNet_topK_5,1,143,NaN,clock,bear,NaN,bear7-clock1.png
AlexNet_topK_5,1,144,NaN,cat,bear,NaN,bear7-dog3.png
AlexNet_topK_5,1,145,NaN,bird,bear,NaN,bear7-oven3.png
AlexNet_topK_5,1,146,NaN,dog,bear,NaN,bear7-truck1.png
AlexNet_topK_5,1,147,NaN,cat,bear,NaN,bear8-airplane1.png
AlexNet_topK_5,1,148,NaN,knife,bear,NaN,bear8-bear1.png
AlexNet_topK_5,1,149,NaN,elephant,bear,NaN,bear8-bicycle3.png
AlexNet_topK_5,1,150,NaN,oven,bear,NaN,bear8-boat2.png
AlexNet_topK_5,1,151,NaN,cat,bear,NaN,bear8-bottle1.png
AlexNet_topK_5,1,152,NaN,cat,bear,NaN,bear8-dog1.png
AlexNet_topK_5,1,153,NaN,bird,bear,NaN,bear8-elephant2.png
AlexNet_topK_5,1,154,NaN,cat,bear,NaN,bear8-knife3.png
AlexNet_topK_5,1,155,NaN,bottle,bear,NaN,bear8-truck3.png
AlexNet_topK_5,1,156,NaN,bottle,bear,NaN,bear9-boat2.png
AlexNet_topK_5,1,157,NaN,elephant,bear,NaN,bear9-bottle2.png
AlexNet_topK_5,1,158,NaN,cat,bear,NaN,bear9-dog1.png
AlexNet_topK_5,1,159,NaN,oven,bear,NaN,bear9-keyboard3.png
AlexNet_topK_5,1,160,NaN,cat,bear,NaN,bear9-knife2.png
AlexNet_topK_5,1,161,NaN,clock,bicycle,NaN,bicycle1-airplane2.png
AlexNet_topK_5,1,162,NaN,clock,bicycle,NaN,bicycle1-bear1.png
AlexNet_topK_5,1,163,NaN,cat,bicycle,NaN,bicycle1-bicycle3.png
AlexNet_topK_5,1,164,NaN,cat,bicycle,NaN,bicycle1-bird1.png
AlexNet_topK_5,1,165,NaN,bicycle,bicycle,NaN,bicycle1-boat3.png
AlexNet_topK_5,1,166,NaN,bicycle,bicycle,NaN,bicycle1-bottle3.png
AlexNet_topK_5,1,167,NaN,bicycle,bicycle,NaN,bicycle1-chair1.png
AlexNet_topK_5,1,168,NaN,clock,bicycle,NaN,bicycle1-clock3.png
AlexNet_topK_5,1,169,NaN,dog,bicycle,NaN,bicycle1-dog3.png
AlexNet_topK_5,1,170,NaN,cat,bicycle,NaN,bicycle1-elephant2.png
AlexNet_topK_5,1,171,NaN,cat,bicycle,NaN,bicycle1-knife3.png
AlexNet_topK_5,1,172,NaN,bicycle,bicycle,NaN,bicycle1-oven1.png
AlexNet_topK_5,1,173,NaN,clock,bicycle,NaN,bicycle1-truck1.png
AlexNet_topK_5,1,174,NaN,bicycle,bicycle,NaN,bicycle10-airplane2.png
AlexNet_topK_5,1,175,NaN,bird,bicycle,NaN,bicycle10-boat3.png
AlexNet_topK_5,1,176,NaN,clock,bicycle,NaN,bicycle10-clock2.png
AlexNet_topK_5,1,177,NaN,oven,bicycle,NaN,bicycle10-dog3.png
AlexNet_topK_5,1,178,NaN,car,bicycle,NaN,bicycle10-elephant2.png
AlexNet_topK_5,1,179,NaN,cat,bicycle,NaN,bicycle2-bicycle1.png
AlexNet_topK_5,1,180,NaN,dog,bicycle,NaN,bicycle2-bird3.png
AlexNet_topK_5,1,181,NaN,airplane,bicycle,NaN,bicycle2-bottle1.png
AlexNet_topK_5,1,182,NaN,airplane,bicycle,NaN,bicycle2-car2.png
AlexNet_topK_5,1,183,NaN,cat,bicycle,NaN,bicycle2-dog1.png
AlexNet_topK_5,1,184,NaN,dog,bicycle,NaN,bicycle2-keyboard2.png
AlexNet_topK_5,1,185,NaN,dog,bicycle,NaN,bicycle2-knife2.png
AlexNet_topK_5,1,186,NaN,clock,bicycle,NaN,bicycle3-bird1.png
AlexNet_topK_5,1,187,NaN,bottle,bicycle,NaN,bicycle3-elephant2.png
AlexNet_topK_5,1,188,NaN,bottle,bicycle,NaN,bicycle3-keyboard1.png
AlexNet_topK_5,1,189,NaN,cat,bicycle,NaN,bicycle3-oven3.png
AlexNet_topK_5,1,190,NaN,bicycle,bicycle,NaN,bicycle3-truck3.png
AlexNet_topK_5,1,191,NaN,bicycle,bicycle,NaN,bicycle4-airplane1.png
AlexNet_topK_5,1,192,NaN,bicycle,bicycle,NaN,bicycle4-bicycle3.png
AlexNet_topK_5,1,193,NaN,bicycle,bicycle,NaN,bicycle4-boat1.png
AlexNet_topK_5,1,194,NaN,bicycle,bicycle,NaN,bicycle4-bottle1.png
AlexNet_topK_5,1,195,NaN,bicycle,bicycle,NaN,bicycle4-car2.png
AlexNet_topK_5,1,196,NaN,bicycle,bicycle,NaN,bicycle4-cat1.png
AlexNet_topK_5,1,197,NaN,bird,bicycle,NaN,bicycle4-chair2.png
AlexNet_topK_5,1,198,NaN,clock,bicycle,NaN,bicycle4-clock3.png
AlexNet_topK_5,1,199,NaN,oven,bicycle,NaN,bicycle4-keyboard3.png
AlexNet_topK_5,1,200,NaN,clock,bicycle,NaN,bicycle4-knife3.png
AlexNet_topK_5,1,201,NaN,cat,bicycle,NaN,bicycle4-oven3.png
AlexNet_topK_5,1,202,NaN,clock,bicycle,NaN,bicycle4-truck3.png
AlexNet_topK_5,1,203,NaN,cat,bicycle,NaN,bicycle5-bear1.png
AlexNet_topK_5,1,204,NaN,bicycle,bicycle,NaN,bicycle5-bottle3.png
AlexNet_topK_5,1,205,NaN,cat,bicycle,NaN,bicycle5-car3.png
AlexNet_topK_5,1,206,NaN,cat,bicycle,NaN,bicycle5-cat1.png
AlexNet_topK_5,1,207,NaN,cat,bicycle,NaN,bicycle5-chair2.png
AlexNet_topK_5,1,208,NaN,cat,bicycle,NaN,bicycle5-dog2.png
AlexNet_topK_5,1,209,NaN,bicycle,bicycle,NaN,bicycle5-elephant1.png
AlexNet_topK_5,1,210,NaN,oven,bicycle,NaN,bicycle5-keyboard3.png
AlexNet_topK_5,1,211,NaN,bicycle,bicycle,NaN,bicycle5-oven3.png
AlexNet_topK_5,1,212,NaN,dog,bicycle,NaN,bicycle6-airplane2.png
AlexNet_topK_5,1,213,NaN,oven,bicycle,NaN,bicycle6-bicycle3.png
AlexNet_topK_5,1,214,NaN,oven,bicycle,NaN,bicycle6-boat2.png
AlexNet_topK_5,1,215,NaN,bottle,bicycle,NaN,bicycle6-car2.png
AlexNet_topK_5,1,216,NaN,cat,bicycle,NaN,bicycle6-cat1.png
AlexNet_topK_5,1,217,NaN,bicycle,bicycle,NaN,bicycle6-dog2.png
AlexNet_topK_5,1,218,NaN,bear,bicycle,NaN,bicycle7-bear2.png
AlexNet_topK_5,1,219,NaN,bicycle,bicycle,NaN,bicycle7-bicycle2.png
AlexNet_topK_5,1,220,NaN,cat,bicycle,NaN,bicycle7-cat1.png
AlexNet_topK_5,1,221,NaN,clock,bicycle,NaN,bicycle7-clock3.png
AlexNet_topK_5,1,222,NaN,bottle,bicycle,NaN,bicycle7-elephant2.png
AlexNet_topK_5,1,223,NaN,cat,bicycle,NaN,bicycle7-knife2.png
AlexNet_topK_5,1,224,NaN,bicycle,bicycle,NaN,bicycle7-oven1.png
AlexNet_topK_5,1,225,NaN,cat,bicycle,NaN,bicycle7-truck3.png
AlexNet_topK_5,1,226,NaN,bicycle,bicycle,NaN,bicycle8-bear2.png
AlexNet_topK_5,1,227,NaN,clock,bicycle,NaN,bicycle8-bird2.png
AlexNet_topK_5,1,228,NaN,cat,bicycle,NaN,bicycle8-boat1.png
AlexNet_topK_5,1,229,NaN,clock,bicycle,NaN,bicycle8-chair2.png
AlexNet_topK_5,1,230,NaN,clock,bicycle,NaN,bicycle8-clock3.png
AlexNet_topK_5,1,231,NaN,cat,bicycle,NaN,bicycle8-truck1.png
AlexNet_topK_5,1,232,NaN,clock,bicycle,NaN,bicycle9-airplane2.png
AlexNet_topK_5,1,233,NaN,cat,bicycle,NaN,bicycle9-bear1.png
AlexNet_topK_5,1,234,NaN,clock,bicycle,NaN,bicycle9-bird3.png
AlexNet_topK_5,1,235,NaN,oven,bicycle,NaN,bicycle9-bottle1.png
AlexNet_topK_5,1,236,NaN,bicycle,bicycle,NaN,bicycle9-car1.png
AlexNet_topK_5,1,237,NaN,cat,bicycle,NaN,bicycle9-cat3.png
AlexNet_topK_5,1,238,NaN,cat,bicycle,NaN,bicycle9-chair1.png
AlexNet_topK_5,1,239,NaN,oven,bicycle,NaN,bicycle9-keyboard3.png
AlexNet_topK_5,1,240,NaN,airplane,bicycle,NaN,bicycle9-knife3.png
AlexNet_topK_5,1,241,NaN,oven,bird,NaN,bird1-airplane2.png
AlexNet_topK_5,1,242,NaN,bird,bird,NaN,bird1-bear1.png
AlexNet_topK_5,1,243,NaN,bird,bird,NaN,bird1-bicycle2.png
AlexNet_topK_5,1,244,NaN,cat,bird,NaN,bird1-boat1.png
AlexNet_topK_5,1,245,NaN,cat,bird,NaN,bird1-chair2.png
AlexNet_topK_5,1,246,NaN,oven,bird,NaN,bird1-clock3.png
AlexNet_topK_5,1,247,NaN,bottle,bird,NaN,bird1-elephant2.png
AlexNet_topK_5,1,248,NaN,bird,bird,NaN,bird1-keyboard3.png
AlexNet_topK_5,1,249,NaN,bird,bird,NaN,bird1-knife3.png
AlexNet_topK_5,1,250,NaN,chair,bird,NaN,bird1-oven1.png
AlexNet_topK_5,1,251,NaN,bird,bird,NaN,bird1-truck1.png
AlexNet_topK_5,1,252,NaN,bottle,bird,NaN,bird10-bear2.png
AlexNet_topK_5,1,253,NaN,clock,bird,NaN,bird10-bicycle1.png
AlexNet_topK_5,1,254,NaN,bird,bird,NaN,bird10-bird2.png
AlexNet_topK_5,1,255,NaN,bird,bird,NaN,bird10-cat1.png
AlexNet_topK_5,1,256,NaN,keyboard,bird,NaN,bird10-chair1.png
AlexNet_topK_5,1,257,NaN,bicycle,bird,NaN,bird10-clock1.png
AlexNet_topK_5,1,258,NaN,bird,bird,NaN,bird10-elephant2.png
AlexNet_topK_5,1,259,NaN,cat,bird,NaN,bird2-airplane3.png
AlexNet_topK_5,1,260,NaN,bird,bird,NaN,bird2-bird2.png
AlexNet_topK_5,1,261,NaN,keyboard,bird,NaN,bird2-car3.png
AlexNet_topK_5,1,262,NaN,keyboard,bird,NaN,bird2-clock3.png
AlexNet_topK_5,1,263,NaN,cat,bird,NaN,bird2-dog2.png
AlexNet_topK_5,1,264,NaN,bottle,bird,NaN,bird2-knife1.png
AlexNet_topK_5,1,265,NaN,bird,bird,NaN,bird3-bear3.png
AlexNet_topK_5,1,266,NaN,cat,bird,NaN,bird3-bird2.png
AlexNet_topK_5,1,267,NaN,bird,bird,NaN,bird3-boat3.png
AlexNet_topK_5,1,268,NaN,bottle,bird,NaN,bird3-bottle2.png
AlexNet_topK_5,1,269,NaN,cat,bird,NaN,bird3-cat1.png
AlexNet_topK_5,1,270,NaN,bottle,bird,NaN,bird3-dog1.png
AlexNet_topK_5,1,271,NaN,cat,bird,NaN,bird3-knife3.png
AlexNet_topK_5,1,272,NaN,cat,bird,NaN,bird3-oven1.png
AlexNet_topK_5,1,273,NaN,cat,bird,NaN,bird3-truck3.png
AlexNet_topK_5,1,274,NaN,elephant,bird,NaN,bird4-airplane1.png
AlexNet_topK_5,1,275,NaN,cat,bird,NaN,bird4-bicycle2.png
AlexNet_topK_5,1,276,NaN,cat,bird,NaN,bird4-cat3.png
AlexNet_topK_5,1,277,NaN,bottle,bird,NaN,bird4-clock1.png
AlexNet_topK_5,1,278,NaN,cat,bird,NaN,bird4-dog3.png
AlexNet_topK_5,1,279,NaN,bottle,bird,NaN,bird5-airplane3.png
AlexNet_topK_5,1,280,NaN,cat,bird,NaN,bird5-bear3.png
AlexNet_topK_5,1,281,NaN,keyboard,bird,NaN,bird5-bicycle1.png
AlexNet_topK_5,1,282,NaN,oven,bird,NaN,bird5-bird1.png
AlexNet_topK_5,1,283,NaN,bird,bird,NaN,bird5-car2.png
AlexNet_topK_5,1,284,NaN,cat,bird,NaN,bird5-cat2.png
AlexNet_topK_5,1,285,NaN,bottle,bird,NaN,bird5-chair1.png
AlexNet_topK_5,1,286,NaN,bird,bird,NaN,bird5-dog2.png
AlexNet_topK_5,1,287,NaN,cat,bird,NaN,bird5-keyboard2.png
AlexNet_topK_5,1,288,NaN,oven,bird,NaN,bird5-oven3.png
AlexNet_topK_5,1,289,NaN,bottle,bird,NaN,bird5-truck2.png
AlexNet_topK_5,1,290,NaN,cat,bird,NaN,bird6-airplane2.png
AlexNet_topK_5,1,291,NaN,cat,bird,NaN,bird6-boat2.png
AlexNet_topK_5,1,292,NaN,dog,bird,NaN,bird6-bottle3.png
AlexNet_topK_5,1,293,NaN,cat,bird,NaN,bird6-car3.png
AlexNet_topK_5,1,294,NaN,bicycle,bird,NaN,bird6-elephant2.png
AlexNet_topK_5,1,295,NaN,cat,bird,NaN,bird6-oven1.png
AlexNet_topK_5,1,296,NaN,bottle,bird,NaN,bird6-truck2.png
AlexNet_topK_5,1,297,NaN,clock,bird,NaN,bird7-bird2.png
AlexNet_topK_5,1,298,NaN,clock,bird,NaN,bird7-boat1.png
AlexNet_topK_5,1,299,NaN,dog,bird,NaN,bird7-bottle1.png
AlexNet_topK_5,1,300,NaN,keyboard,bird,NaN,bird7-car2.png
AlexNet_topK_5,1,301,NaN,bird,bird,NaN,bird7-cat3.png
AlexNet_topK_5,1,302,NaN,cat,bird,NaN,bird7-keyboard3.png
AlexNet_topK_5,1,303,NaN,oven,bird,NaN,bird7-knife2.png
AlexNet_topK_5,1,304,NaN,oven,bird,NaN,bird7-oven3.png
AlexNet_topK_5,1,305,NaN,bottle,bird,NaN,bird7-truck2.png
AlexNet_topK_5,1,306,NaN,bicycle,bird,NaN,bird8-boat3.png
AlexNet_topK_5,1,307,NaN,oven,bird,NaN,bird8-bottle1.png
AlexNet_topK_5,1,308,NaN,cat,bird,NaN,bird8-car2.png
AlexNet_topK_5,1,309,NaN,cat,bird,NaN,bird8-chair1.png
AlexNet_topK_5,1,310,NaN,clock,bird,NaN,bird8-clock1.png
AlexNet_topK_5,1,311,NaN,bottle,bird,NaN,bird8-elephant1.png
AlexNet_topK_5,1,312,NaN,bicycle,bird,NaN,bird8-keyboard2.png
AlexNet_topK_5,1,313,NaN,cat,bird,NaN,bird8-knife2.png
AlexNet_topK_5,1,314,NaN,knife,bird,NaN,bird9-bear3.png
AlexNet_topK_5,1,315,NaN,oven,bird,NaN,bird9-bicycle3.png
AlexNet_topK_5,1,316,NaN,cat,bird,NaN,bird9-bottle3.png
AlexNet_topK_5,1,317,NaN,keyboard,bird,NaN,bird9-chair1.png
AlexNet_topK_5,1,318,NaN,cat,bird,NaN,bird9-dog2.png
AlexNet_topK_5,1,319,NaN,cat,bird,NaN,bird9-elephant2.png
AlexNet_topK_5,1,320,NaN,oven,bird,NaN,bird9-keyboard1.png
AlexNet_topK_5,1,321,NaN,cat,boat,NaN,boat1-bear1.png
AlexNet_topK_5,1,322,NaN,dog,boat,NaN,boat1-bicycle2.png
AlexNet_topK_5,1,323,NaN,oven,boat,NaN,boat1-bird3.png
AlexNet_topK_5,1,324,NaN,cat,boat,NaN,boat1-car2.png
AlexNet_topK_5,1,325,NaN,airplane,boat,NaN,boat1-chair3.png
AlexNet_topK_5,1,326,NaN,cat,boat,NaN,boat1-elephant3.png
AlexNet_topK_5,1,327,NaN,cat,boat,NaN,boat1-keyboard3.png
AlexNet_topK_5,1,328,NaN,oven,boat,NaN,boat1-oven1.png
AlexNet_topK_5,1,329,NaN,oven,boat,NaN,boat1-truck3.png
AlexNet_topK_5,1,330,NaN,bottle,boat,NaN,boat10-bear3.png
AlexNet_topK_5,1,331,NaN,cat,boat,NaN,boat10-boat3.png
AlexNet_topK_5,1,332,NaN,cat,boat,NaN,boat10-cat1.png
AlexNet_topK_5,1,333,NaN,elephant,boat,NaN,boat10-oven1.png
AlexNet_topK_5,1,334,NaN,clock,boat,NaN,boat10-truck1.png
AlexNet_topK_5,1,335,NaN,cat,boat,NaN,boat2-airplane1.png
AlexNet_topK_5,1,336,NaN,cat,boat,NaN,boat2-bear3.png
AlexNet_topK_5,1,337,NaN,bottle,boat,NaN,boat2-bird1.png
AlexNet_topK_5,1,338,NaN,bicycle,boat,NaN,boat2-bottle2.png
AlexNet_topK_5,1,339,NaN,elephant,boat,NaN,boat2-keyboard1.png
AlexNet_topK_5,1,340,NaN,cat,boat,NaN,boat2-oven3.png
AlexNet_topK_5,1,341,NaN,cat,boat,NaN,boat3-airplane2.png
AlexNet_topK_5,1,342,NaN,cat,boat,NaN,boat3-bicycle2.png
AlexNet_topK_5,1,343,NaN,bottle,boat,NaN,boat3-car3.png
AlexNet_topK_5,1,344,NaN,bird,boat,NaN,boat3-cat3.png
AlexNet_topK_5,1,345,NaN,cat,boat,NaN,boat3-chair3.png
AlexNet_topK_5,1,346,NaN,bottle,boat,NaN,boat3-clock3.png
AlexNet_topK_5,1,347,NaN,keyboard,boat,NaN,boat3-dog3.png
AlexNet_topK_5,1,348,NaN,oven,boat,NaN,boat3-keyboard2.png
AlexNet_topK_5,1,349,NaN,elephant,boat,NaN,boat4-bicycle3.png
AlexNet_topK_5,1,350,NaN,dog,boat,NaN,boat4-bird1.png
AlexNet_topK_5,1,351,NaN,cat,boat,NaN,boat4-boat3.png
AlexNet_topK_5,1,352,NaN,elephant,boat,NaN,boat4-bottle2.png
AlexNet_topK_5,1,353,NaN,oven,boat,NaN,boat4-car3.png
AlexNet_topK_5,1,354,NaN,cat,boat,NaN,boat4-chair2.png
AlexNet_topK_5,1,355,NaN,knife,boat,NaN,boat4-dog2.png
AlexNet_topK_5,1,356,NaN,bicycle,boat,NaN,boat4-elephant2.png
AlexNet_topK_5,1,357,NaN,bear,boat,NaN,boat4-knife2.png
AlexNet_topK_5,1,358,NaN,chair,boat,NaN,boat5-airplane1.png
AlexNet_topK_5,1,359,NaN,cat,boat,NaN,boat5-bicycle3.png
AlexNet_topK_5,1,360,NaN,bottle,boat,NaN,boat5-boat3.png
AlexNet_topK_5,1,361,NaN,chair,boat,NaN,boat5-car3.png
AlexNet_topK_5,1,362,NaN,clock,boat,NaN,boat5-clock3.png
AlexNet_topK_5,1,363,NaN,clock,boat,NaN,boat5-knife2.png
AlexNet_topK_5,1,364,NaN,bicycle,boat,NaN,boat6-airplane2.png
AlexNet_topK_5,1,365,NaN,knife,boat,NaN,boat6-bear1.png
AlexNet_topK_5,1,366,NaN,bicycle,boat,NaN,boat6-bicycle2.png
AlexNet_topK_5,1,367,NaN,bird,boat,NaN,boat6-bottle2.png
AlexNet_topK_5,1,368,NaN,bottle,boat,NaN,boat6-car1.png
AlexNet_topK_5,1,369,NaN,cat,boat,NaN,boat6-cat1.png
AlexNet_topK_5,1,370,NaN,bicycle,boat,NaN,boat6-clock2.png
AlexNet_topK_5,1,371,NaN,cat,boat,NaN,boat6-dog1.png
AlexNet_topK_5,1,372,NaN,bird,boat,NaN,boat6-elephant2.png
AlexNet_topK_5,1,373,NaN,cat,boat,NaN,boat6-knife2.png
AlexNet_topK_5,1,374,NaN,bottle,boat,NaN,boat6-truck3.png
AlexNet_topK_5,1,375,NaN,bottle,boat,NaN,boat7-boat2.png
AlexNet_topK_5,1,376,NaN,bottle,boat,NaN,boat7-bottle1.png
AlexNet_topK_5,1,377,NaN,knife,boat,NaN,boat7-cat3.png
AlexNet_topK_5,1,378,NaN,dog,boat,NaN,boat7-chair1.png
AlexNet_topK_5,1,379,NaN,oven,boat,NaN,boat7-clock3.png
AlexNet_topK_5,1,380,NaN,cat,boat,NaN,boat7-elephant3.png
AlexNet_topK_5,1,381,NaN,bottle,boat,NaN,boat7-keyboard3.png
AlexNet_topK_5,1,382,NaN,cat,boat,NaN,boat7-oven3.png
AlexNet_topK_5,1,383,NaN,oven,boat,NaN,boat7-truck2.png
AlexNet_topK_5,1,384,NaN,cat,boat,NaN,boat8-bird2.png
AlexNet_topK_5,1,385,NaN,cat,boat,NaN,boat8-bottle1.png
AlexNet_topK_5,1,386,NaN,elephant,boat,NaN,boat8-dog3.png
AlexNet_topK_5,1,387,NaN,cat,boat,NaN,boat8-elephant1.png
AlexNet_topK_5,1,388,NaN,cat,boat,NaN,boat8-knife1.png
AlexNet_topK_5,1,389,NaN,cat,boat,NaN,boat8-oven1.png
AlexNet_topK_5,1,390,NaN,elephant,boat,NaN,boat8-truck2.png
AlexNet_topK_5,1,391,NaN,bottle,boat,NaN,boat9-airplane2.png
AlexNet_topK_5,1,392,NaN,cat,boat,NaN,boat9-bear3.png
AlexNet_topK_5,1,393,NaN,cat,boat,NaN,boat9-bird1.png
AlexNet_topK_5,1,394,NaN,bottle,boat,NaN,boat9-boat3.png
AlexNet_topK_5,1,395,NaN,knife,boat,NaN,boat9-cat3.png
AlexNet_topK_5,1,396,NaN,elephant,boat,NaN,boat9-chair2.png
AlexNet_topK_5,1,397,NaN,dog,boat,NaN,boat9-clock1.png
AlexNet_topK_5,1,398,NaN,cat,boat,NaN,boat9-dog2.png
AlexNet_topK_5,1,399,NaN,oven,boat,NaN,boat9-keyboard2.png
AlexNet_topK_5,1,400,NaN,dog,boat,NaN,boat9-knife2.png
AlexNet_topK_5,1,401,NaN,bottle,bottle,NaN,bottle1-bear1.png
AlexNet_topK_5,1,402,NaN,bottle,bottle,NaN,bottle1-bird3.png
AlexNet_topK_5,1,403,NaN,bicycle,bottle,NaN,bottle1-car1.png
AlexNet_topK_5,1,404,NaN,cat,bottle,NaN,bottle1-cat3.png
AlexNet_topK_5,1,405,NaN,bottle,bottle,NaN,bottle1-chair2.png
AlexNet_topK_5,1,406,NaN,bottle,bottle,NaN,bottle1-clock1.png
AlexNet_topK_5,1,407,NaN,bottle,bottle,NaN,bottle1-dog2.png
AlexNet_topK_5,1,408,NaN,bottle,bottle,NaN,bottle1-keyboard3.png
AlexNet_topK_5,1,409,NaN,cat,bottle,NaN,bottle10-bear2.png
AlexNet_topK_5,1,410,NaN,cat,bottle,NaN,bottle10-boat3.png
AlexNet_topK_5,1,411,NaN,bottle,bottle,NaN,bottle10-car1.png
AlexNet_topK_5,1,412,NaN,bottle,bottle,NaN,bottle10-clock2.png
AlexNet_topK_5,1,413,NaN,cat,bottle,NaN,bottle10-dog1.png
AlexNet_topK_5,1,414,NaN,bottle,bottle,NaN,bottle10-truck3.png
AlexNet_topK_5,1,415,NaN,bottle,bottle,NaN,bottle2-bottle3.png
AlexNet_topK_5,1,416,NaN,cat,bottle,NaN,bottle2-car2.png
AlexNet_topK_5,1,417,NaN,clock,bottle,NaN,bottle2-chair3.png
AlexNet_topK_5,1,418,NaN,bottle,bottle,NaN,bottle2-clock1.png
AlexNet_topK_5,1,419,NaN,bottle,bottle,NaN,bottle2-elephant1.png
AlexNet_topK_5,1,420,NaN,bottle,bottle,NaN,bottle2-knife3.png
AlexNet_topK_5,1,421,NaN,bottle,bottle,NaN,bottle3-airplane2.png
AlexNet_topK_5,1,422,NaN,cat,bottle,NaN,bottle3-bear2.png
AlexNet_topK_5,1,423,NaN,clock,bottle,NaN,bottle3-bicycle3.png
AlexNet_topK_5,1,424,NaN,oven,bottle,NaN,bottle3-bird1.png
AlexNet_topK_5,1,425,NaN,elephant,bottle,NaN,bottle3-boat3.png
AlexNet_topK_5,1,426,NaN,bottle,bottle,NaN,bottle3-bottle3.png
AlexNet_topK_5,1,427,NaN,bottle,bottle,NaN,bottle3-cat3.png
AlexNet_topK_5,1,428,NaN,bird,bottle,NaN,bottle3-chair3.png
AlexNet_topK_5,1,429,NaN,bottle,bottle,NaN,bottle3-knife3.png
AlexNet_topK_5,1,430,NaN,oven,bottle,NaN,bottle4-airplane1.png
AlexNet_topK_5,1,431,NaN,cat,bottle,NaN,bottle4-bicycle1.png
AlexNet_topK_5,1,432,NaN,bottle,bottle,NaN,bottle4-car3.png
AlexNet_topK_5,1,433,NaN,cat,bottle,NaN,bottle4-dog2.png
AlexNet_topK_5,1,434,NaN,oven,bottle,NaN,bottle4-oven2.png
AlexNet_topK_5,1,435,NaN,dog,bottle,NaN,bottle4-truck1.png
AlexNet_topK_5,1,436,NaN,bottle,bottle,NaN,bottle5-airplane1.png
AlexNet_topK_5,1,437,NaN,bottle,bottle,NaN,bottle5-bird3.png
AlexNet_topK_5,1,438,NaN,bottle,bottle,NaN,bottle5-boat1.png
AlexNet_topK_5,1,439,NaN,cat,bottle,NaN,bottle5-cat1.png
AlexNet_topK_5,1,440,NaN,truck,bottle,NaN,bottle5-chair1.png
AlexNet_topK_5,1,441,NaN,clock,bottle,NaN,bottle5-clock3.png
AlexNet_topK_5,1,442,NaN,bicycle,bottle,NaN,bottle5-elephant1.png
AlexNet_topK_5,1,443,NaN,bottle,bottle,NaN,bottle5-keyboard2.png
AlexNet_topK_5,1,444,NaN,oven,bottle,NaN,bottle5-knife1.png
AlexNet_topK_5,1,445,NaN,bottle,bottle,NaN,bottle5-oven2.png
AlexNet_topK_5,1,446,NaN,bottle,bottle,NaN,bottle5-truck1.png
AlexNet_topK_5,1,447,NaN,elephant,bottle,NaN,bottle6-airplane1.png
AlexNet_topK_5,1,448,NaN,bicycle,bottle,NaN,bottle6-bear2.png
AlexNet_topK_5,1,449,NaN,bottle,bottle,NaN,bottle6-bicycle3.png
AlexNet_topK_5,1,450,NaN,bottle,bottle,NaN,bottle6-bird1.png
AlexNet_topK_5,1,451,NaN,bottle,bottle,NaN,bottle6-boat3.png
AlexNet_topK_5,1,452,NaN,bottle,bottle,NaN,bottle6-bottle3.png
AlexNet_topK_5,1,453,NaN,bottle,bottle,NaN,bottle6-chair2.png
AlexNet_topK_5,1,454,NaN,dog,bottle,NaN,bottle6-dog3.png
AlexNet_topK_5,1,455,NaN,chair,bottle,NaN,bottle6-knife3.png
AlexNet_topK_5,1,456,NaN,oven,bottle,NaN,bottle6-oven3.png
AlexNet_topK_5,1,457,NaN,bottle,bottle,NaN,bottle7-airplane3.png
AlexNet_topK_5,1,458,NaN,bird,bottle,NaN,bottle7-bear1.png
AlexNet_topK_5,1,459,NaN,cat,bottle,NaN,bottle7-boat3.png
AlexNet_topK_5,1,460,NaN,cat,bottle,NaN,bottle7-cat2.png
AlexNet_topK_5,1,461,NaN,bottle,bottle,NaN,bottle7-clock1.png
AlexNet_topK_5,1,462,NaN,bird,bottle,NaN,bottle7-elephant2.png
AlexNet_topK_5,1,463,NaN,cat,bottle,NaN,bottle7-keyboard2.png
AlexNet_topK_5,1,464,NaN,oven,bottle,NaN,bottle7-oven2.png
AlexNet_topK_5,1,465,NaN,clock,bottle,NaN,bottle7-truck2.png
AlexNet_topK_5,1,466,NaN,bottle,bottle,NaN,bottle8-bicycle1.png
AlexNet_topK_5,1,467,NaN,elephant,bottle,NaN,bottle8-bird1.png
AlexNet_topK_5,1,468,NaN,bottle,bottle,NaN,bottle8-bottle3.png
AlexNet_topK_5,1,469,NaN,bicycle,bottle,NaN,bottle8-dog2.png
AlexNet_topK_5,1,470,NaN,bottle,bottle,NaN,bottle8-elephant3.png
AlexNet_topK_5,1,471,NaN,cat,bottle,NaN,bottle8-keyboard3.png
AlexNet_topK_5,1,472,NaN,bottle,bottle,NaN,bottle8-knife1.png
AlexNet_topK_5,1,473,NaN,clock,bottle,NaN,bottle9-bicycle1.png
AlexNet_topK_5,1,474,NaN,bottle,bottle,NaN,bottle9-bottle1.png
AlexNet_topK_5,1,475,NaN,bottle,bottle,NaN,bottle9-car3.png
AlexNet_topK_5,1,476,NaN,bottle,bottle,NaN,bottle9-cat2.png
AlexNet_topK_5,1,477,NaN,bottle,bottle,NaN,bottle9-elephant2.png
AlexNet_topK_5,1,478,NaN,bottle,bottle,NaN,bottle9-keyboard1.png
AlexNet_topK_5,1,479,NaN,oven,bottle,NaN,bottle9-oven2.png
AlexNet_topK_5,1,480,NaN,bottle,bottle,NaN,bottle9-truck1.png
AlexNet_topK_5,1,481,NaN,dog,car,NaN,car1-airplane1.png
AlexNet_topK_5,1,482,NaN,bicycle,car,NaN,car1-car2.png
AlexNet_topK_5,1,483,NaN,cat,car,NaN,car1-chair3.png
AlexNet_topK_5,1,484,NaN,bird,car,NaN,car1-clock2.png
AlexNet_topK_5,1,485,NaN,cat,car,NaN,car1-dog2.png
AlexNet_topK_5,1,486,NaN,cat,car,NaN,car1-keyboard2.png
AlexNet_topK_5,1,487,NaN,cat,car,NaN,car1-oven3.png
AlexNet_topK_5,1,488,NaN,cat,car,NaN,car10-bicycle2.png
AlexNet_topK_5,1,489,NaN,bottle,car,NaN,car10-bottle3.png
AlexNet_topK_5,1,490,NaN,bicycle,car,NaN,car10-car1.png
AlexNet_topK_5,1,491,NaN,airplane,car,NaN,car10-chair1.png
AlexNet_topK_5,1,492,NaN,bottle,car,NaN,car10-dog1.png
AlexNet_topK_5,1,493,NaN,airplane,car,NaN,car10-elephant2.png
AlexNet_topK_5,1,494,NaN,cat,car,NaN,car10-keyboard2.png
AlexNet_topK_5,1,495,NaN,car,car,NaN,car2-bird3.png
AlexNet_topK_5,1,496,NaN,bicycle,car,NaN,car2-car3.png
AlexNet_topK_5,1,497,NaN,bottle,car,NaN,car2-cat3.png
AlexNet_topK_5,1,498,NaN,clock,car,NaN,car2-chair1.png
AlexNet_topK_5,1,499,NaN,oven,car,NaN,car2-knife3.png
AlexNet_topK_5,1,500,NaN,cat,car,NaN,car3-airplane3.png
AlexNet_topK_5,1,501,NaN,car,car,NaN,car3-bird2.png
AlexNet_topK_5,1,502,NaN,clock,car,NaN,car3-boat1.png
AlexNet_topK_5,1,503,NaN,bottle,car,NaN,car3-bottle3.png
AlexNet_topK_5,1,504,NaN,cat,car,NaN,car3-dog2.png
AlexNet_topK_5,1,505,NaN,dog,car,NaN,car3-elephant3.png
AlexNet_topK_5,1,506,NaN,dog,car,NaN,car3-oven3.png
AlexNet_topK_5,1,507,NaN,bottle,car,NaN,car3-truck1.png
AlexNet_topK_5,1,508,NaN,car,car,NaN,car4-bear3.png
AlexNet_topK_5,1,509,NaN,airplane,car,NaN,car4-bicycle3.png
AlexNet_topK_5,1,510,NaN,cat,car,NaN,car4-bird1.png
AlexNet_topK_5,1,511,NaN,bottle,car,NaN,car4-boat1.png
AlexNet_topK_5,1,512,NaN,bicycle,car,NaN,car4-bottle1.png
AlexNet_topK_5,1,513,NaN,dog,car,NaN,car4-car2.png
AlexNet_topK_5,1,514,NaN,bottle,car,NaN,car4-cat3.png
AlexNet_topK_5,1,515,NaN,dog,car,NaN,car4-clock1.png
AlexNet_topK_5,1,516,NaN,oven,car,NaN,car4-elephant3.png
AlexNet_topK_5,1,517,NaN,oven,car,NaN,car4-oven2.png
AlexNet_topK_5,1,518,NaN,oven,car,NaN,car5-airplane3.png
AlexNet_topK_5,1,519,NaN,car,car,NaN,car5-bear3.png
AlexNet_topK_5,1,520,NaN,clock,car,NaN,car5-bottle1.png
AlexNet_topK_5,1,521,NaN,oven,car,NaN,car5-cat1.png
AlexNet_topK_5,1,522,NaN,oven,car,NaN,car5-keyboard3.png
AlexNet_topK_5,1,523,NaN,oven,car,NaN,car5-knife2.png
AlexNet_topK_5,1,524,NaN,oven,car,NaN,car5-oven2.png
AlexNet_topK_5,1,525,NaN,oven,car,NaN,car5-truck3.png
AlexNet_topK_5,1,526,NaN,cat,car,NaN,car6-bear1.png
AlexNet_topK_5,1,527,NaN,elephant,car,NaN,car6-bicycle3.png
AlexNet_topK_5,1,528,NaN,keyboard,car,NaN,car6-boat1.png
AlexNet_topK_5,1,529,NaN,clock,car,NaN,car6-bottle1.png
AlexNet_topK_5,1,530,NaN,bird,car,NaN,car6-chair3.png
AlexNet_topK_5,1,531,NaN,elephant,car,NaN,car6-elephant3.png
AlexNet_topK_5,1,532,NaN,bottle,car,NaN,car6-knife1.png
AlexNet_topK_5,1,533,NaN,bicycle,car,NaN,car6-truck3.png
AlexNet_topK_5,1,534,NaN,knife,car,NaN,car7-airplane2.png
AlexNet_topK_5,1,535,NaN,cat,car,NaN,car7-bear1.png
AlexNet_topK_5,1,536,NaN,clock,car,NaN,car7-bird3.png
AlexNet_topK_5,1,537,NaN,cat,car,NaN,car7-boat3.png
AlexNet_topK_5,1,538,NaN,cat,car,NaN,car7-car1.png
AlexNet_topK_5,1,539,NaN,cat,car,NaN,car7-clock1.png
AlexNet_topK_5,1,540,NaN,clock,car,NaN,car7-dog3.png
AlexNet_topK_5,1,541,NaN,clock,car,NaN,car7-elephant3.png
AlexNet_topK_5,1,542,NaN,knife,car,NaN,car7-keyboard3.png
AlexNet_topK_5,1,543,NaN,clock,car,NaN,car7-oven2.png
AlexNet_topK_5,1,544,NaN,bottle,car,NaN,car8-airplane3.png
AlexNet_topK_5,1,545,NaN,cat,car,NaN,car8-bear1.png
AlexNet_topK_5,1,546,NaN,clock,car,NaN,car8-bicycle2.png
AlexNet_topK_5,1,547,NaN,cat,car,NaN,car8-boat3.png
AlexNet_topK_5,1,548,NaN,cat,car,NaN,car8-cat1.png
AlexNet_topK_5,1,549,NaN,clock,car,NaN,car8-chair1.png
AlexNet_topK_5,1,550,NaN,clock,car,NaN,car8-clock2.png
AlexNet_topK_5,1,551,NaN,dog,car,NaN,car8-dog1.png
AlexNet_topK_5,1,552,NaN,bicycle,car,NaN,car8-knife2.png
AlexNet_topK_5,1,553,NaN,dog,car,NaN,car8-truck3.png
AlexNet_topK_5,1,554,NaN,bicycle,car,NaN,car9-bicycle2.png
AlexNet_topK_5,1,555,NaN,dog,car,NaN,car9-bird1.png
AlexNet_topK_5,1,556,NaN,oven,car,NaN,car9-cat1.png
AlexNet_topK_5,1,557,NaN,oven,car,NaN,car9-clock2.png
AlexNet_topK_5,1,558,NaN,cat,car,NaN,car9-keyboard2.png
AlexNet_topK_5,1,559,NaN,dog,car,NaN,car9-knife1.png
AlexNet_topK_5,1,560,NaN,car,car,NaN,car9-truck3.png
AlexNet_topK_5,1,561,NaN,cat,cat,NaN,cat1-airplane1.png
AlexNet_topK_5,1,562,NaN,cat,cat,NaN,cat1-bird1.png
AlexNet_topK_5,1,563,NaN,cat,cat,NaN,cat1-boat1.png
AlexNet_topK_5,1,564,NaN,bicycle,cat,NaN,cat1-car2.png
AlexNet_topK_5,1,565,NaN,cat,cat,NaN,cat1-cat3.png
AlexNet_topK_5,1,566,NaN,cat,cat,NaN,cat1-chair2.png
AlexNet_topK_5,1,567,NaN,cat,cat,NaN,cat1-dog1.png
AlexNet_topK_5,1,568,NaN,cat,cat,NaN,cat1-keyboard3.png
AlexNet_topK_5,1,569,NaN,chair,cat,NaN,cat1-oven1.png
AlexNet_topK_5,1,570,NaN,clock,cat,NaN,cat10-airplane3.png
AlexNet_topK_5,1,571,NaN,bird,cat,NaN,cat10-bear1.png
AlexNet_topK_5,1,572,NaN,cat,cat,NaN,cat10-bicycle1.png
AlexNet_topK_5,1,573,NaN,cat,cat,NaN,cat10-bird2.png
AlexNet_topK_5,1,574,NaN,clock,cat,NaN,cat10-bottle1.png
AlexNet_topK_5,1,575,NaN,cat,cat,NaN,cat10-clock1.png
AlexNet_topK_5,1,576,NaN,elephant,cat,NaN,cat10-elephant3.png
AlexNet_topK_5,1,577,NaN,elephant,cat,NaN,cat10-keyboard1.png
AlexNet_topK_5,1,578,NaN,cat,cat,NaN,cat10-oven2.png
AlexNet_topK_5,1,579,NaN,cat,cat,NaN,cat2-boat2.png
AlexNet_topK_5,1,580,NaN,cat,cat,NaN,cat2-bottle3.png
AlexNet_topK_5,1,581,NaN,bird,cat,NaN,cat2-car3.png
AlexNet_topK_5,1,582,NaN,cat,cat,NaN,cat2-cat1.png
AlexNet_topK_5,1,583,NaN,cat,cat,NaN,cat2-elephant1.png
AlexNet_topK_5,1,584,NaN,bear,cat,NaN,cat2-knife3.png
AlexNet_topK_5,1,585,NaN,cat,cat,NaN,cat2-truck3.png
AlexNet_topK_5,1,586,NaN,cat,cat,NaN,cat3-bear2.png
AlexNet_topK_5,1,587,NaN,cat,cat,NaN,cat3-bicycle1.png
AlexNet_topK_5,1,588,NaN,cat,cat,NaN,cat3-cat1.png
AlexNet_topK_5,1,589,NaN,cat,cat,NaN,cat3-elephant2.png
AlexNet_topK_5,1,590,NaN,bicycle,cat,NaN,cat3-oven2.png
AlexNet_topK_5,1,591,NaN,bicycle,cat,NaN,cat3-truck3.png
AlexNet_topK_5,1,592,NaN,clock,cat,NaN,cat4-airplane1.png
AlexNet_topK_5,1,593,NaN,clock,cat,NaN,cat4-bird2.png
AlexNet_topK_5,1,594,NaN,clock,cat,NaN,cat4-car2.png
AlexNet_topK_5,1,595,NaN,dog,cat,NaN,cat4-cat3.png
AlexNet_topK_5,1,596,NaN,cat,cat,NaN,cat4-chair2.png
AlexNet_topK_5,1,597,NaN,clock,cat,NaN,cat4-clock2.png
AlexNet_topK_5,1,598,NaN,cat,cat,NaN,cat4-dog3.png
AlexNet_topK_5,1,599,NaN,bicycle,cat,NaN,cat4-keyboard2.png
AlexNet_topK_5,1,600,NaN,cat,cat,NaN,cat4-knife1.png
AlexNet_topK_5,1,601,NaN,elephant,cat,NaN,cat4-oven1.png
AlexNet_topK_5,1,602,NaN,cat,cat,NaN,cat4-truck3.png
AlexNet_topK_5,1,603,NaN,cat,cat,NaN,cat5-airplane2.png
AlexNet_topK_5,1,604,NaN,cat,cat,NaN,cat5-bear2.png
AlexNet_topK_5,1,605,NaN,cat,cat,NaN,cat5-bicycle3.png
AlexNet_topK_5,1,606,NaN,clock,cat,NaN,cat5-boat1.png
AlexNet_topK_5,1,607,NaN,cat,cat,NaN,cat5-bottle1.png
AlexNet_topK_5,1,608,NaN,cat,cat,NaN,cat5-car2.png
AlexNet_topK_5,1,609,NaN,bottle,cat,NaN,cat5-chair3.png
AlexNet_topK_5,1,610,NaN,dog,cat,NaN,cat5-dog3.png
AlexNet_topK_5,1,611,NaN,cat,cat,NaN,cat5-elephant2.png
AlexNet_topK_5,1,612,NaN,cat,cat,NaN,cat5-keyboard3.png
AlexNet_topK_5,1,613,NaN,cat,cat,NaN,cat5-knife2.png
AlexNet_topK_5,1,614,NaN,keyboard,cat,NaN,cat6-bear1.png
AlexNet_topK_5,1,615,NaN,cat,cat,NaN,cat6-chair3.png
AlexNet_topK_5,1,616,NaN,cat,cat,NaN,cat6-clock3.png
AlexNet_topK_5,1,617,NaN,bird,cat,NaN,cat6-keyboard3.png
AlexNet_topK_5,1,618,NaN,cat,cat,NaN,cat6-oven1.png
AlexNet_topK_5,1,619,NaN,dog,cat,NaN,cat7-airplane2.png
AlexNet_topK_5,1,620,NaN,cat,cat,NaN,cat7-boat3.png
AlexNet_topK_5,1,621,NaN,elephant,cat,NaN,cat7-bottle1.png
AlexNet_topK_5,1,622,NaN,oven,cat,NaN,cat7-clock3.png
AlexNet_topK_5,1,623,NaN,elephant,cat,NaN,cat7-dog3.png
AlexNet_topK_5,1,624,NaN,bird,cat,NaN,cat7-elephant1.png
AlexNet_topK_5,1,625,NaN,cat,cat,NaN,cat7-knife2.png
AlexNet_topK_5,1,626,NaN,dog,cat,NaN,cat7-truck2.png
AlexNet_topK_5,1,627,NaN,cat,cat,NaN,cat8-bear1.png
AlexNet_topK_5,1,628,NaN,cat,cat,NaN,cat8-bicycle3.png
AlexNet_topK_5,1,629,NaN,cat,cat,NaN,cat8-bird2.png
AlexNet_topK_5,1,630,NaN,knife,cat,NaN,cat8-car2.png
AlexNet_topK_5,1,631,NaN,cat,cat,NaN,cat9-bicycle1.png
AlexNet_topK_5,1,632,NaN,dog,cat,NaN,cat9-bird3.png
AlexNet_topK_5,1,633,NaN,airplane,cat,NaN,cat9-boat2.png
AlexNet_topK_5,1,634,NaN,car,cat,NaN,cat9-bottle2.png
AlexNet_topK_5,1,635,NaN,bird,cat,NaN,cat9-cat3.png
AlexNet_topK_5,1,636,NaN,bottle,cat,NaN,cat9-chair2.png
AlexNet_topK_5,1,637,NaN,cat,cat,NaN,cat9-clock2.png
AlexNet_topK_5,1,638,NaN,bird,cat,NaN,cat9-dog2.png
AlexNet_topK_5,1,639,NaN,cat,cat,NaN,cat9-knife2.png
AlexNet_topK_5,1,640,NaN,cat,cat,NaN,cat9-truck1.png
AlexNet_topK_5,1,641,NaN,cat,chair,NaN,chair1-airplane2.png
AlexNet_topK_5,1,642,NaN,cat,chair,NaN,chair1-bear1.png
AlexNet_topK_5,1,643,NaN,bird,chair,NaN,chair1-cat3.png
AlexNet_topK_5,1,644,NaN,cat,chair,NaN,chair1-chair1.png
AlexNet_topK_5,1,645,NaN,bird,chair,NaN,chair1-clock2.png
AlexNet_topK_5,1,646,NaN,bird,chair,NaN,chair1-dog1.png
AlexNet_topK_5,1,647,NaN,cat,chair,NaN,chair1-elephant1.png
AlexNet_topK_5,1,648,NaN,oven,chair,NaN,chair1-oven3.png
AlexNet_topK_5,1,649,NaN,bicycle,chair,NaN,chair1-truck3.png
AlexNet_topK_5,1,650,NaN,cat,chair,NaN,chair10-airplane2.png
AlexNet_topK_5,1,651,NaN,bicycle,chair,NaN,chair10-bicycle1.png
AlexNet_topK_5,1,652,NaN,oven,chair,NaN,chair10-bird3.png
AlexNet_topK_5,1,653,NaN,bottle,chair,NaN,chair10-bottle3.png
AlexNet_topK_5,1,654,NaN,dog,chair,NaN,chair10-car2.png
AlexNet_topK_5,1,655,NaN,cat,chair,NaN,chair10-cat1.png
AlexNet_topK_5,1,656,NaN,knife,chair,NaN,chair10-clock1.png
AlexNet_topK_5,1,657,NaN,dog,chair,NaN,chair10-dog1.png
AlexNet_topK_5,1,658,NaN,bird,chair,NaN,chair10-oven1.png
AlexNet_topK_5,1,659,NaN,cat,chair,NaN,chair2-bear2.png
AlexNet_topK_5,1,660,NaN,oven,chair,NaN,chair2-boat1.png
AlexNet_topK_5,1,661,NaN,cat,chair,NaN,chair2-keyboard2.png
AlexNet_topK_5,1,662,NaN,oven,chair,NaN,chair2-knife1.png
AlexNet_topK_5,1,663,NaN,bicycle,chair,NaN,chair3-airplane2.png
AlexNet_topK_5,1,664,NaN,oven,chair,NaN,chair3-bicycle3.png
AlexNet_topK_5,1,665,NaN,cat,chair,NaN,chair3-bottle3.png
AlexNet_topK_5,1,666,NaN,dog,chair,NaN,chair3-car3.png
AlexNet_topK_5,1,667,NaN,cat,chair,NaN,chair3-dog2.png
AlexNet_topK_5,1,668,NaN,cat,chair,NaN,chair3-knife1.png
AlexNet_topK_5,1,669,NaN,cat,chair,NaN,chair4-bear2.png
AlexNet_topK_5,1,670,NaN,cat,chair,NaN,chair4-cat2.png
AlexNet_topK_5,1,671,NaN,bicycle,chair,NaN,chair4-chair3.png
AlexNet_topK_5,1,672,NaN,bear,chair,NaN,chair4-keyboard2.png
AlexNet_topK_5,1,673,NaN,knife,chair,NaN,chair4-oven2.png
AlexNet_topK_5,1,674,NaN,cat,chair,NaN,chair4-truck2.png
AlexNet_topK_5,1,675,NaN,bird,chair,NaN,chair5-bicycle1.png
AlexNet_topK_5,1,676,NaN,cat,chair,NaN,chair5-bird1.png
AlexNet_topK_5,1,677,NaN,clock,chair,NaN,chair5-boat3.png
AlexNet_topK_5,1,678,NaN,cat,chair,NaN,chair5-bottle3.png
AlexNet_topK_5,1,679,NaN,bicycle,chair,NaN,chair5-car1.png
AlexNet_topK_5,1,680,NaN,cat,chair,NaN,chair5-cat3.png
AlexNet_topK_5,1,681,NaN,cat,chair,NaN,chair5-clock2.png
AlexNet_topK_5,1,682,NaN,cat,chair,NaN,chair5-keyboard2.png
AlexNet_topK_5,1,683,NaN,dog,chair,NaN,chair5-knife3.png
AlexNet_topK_5,1,684,NaN,dog,chair,NaN,chair5-oven2.png
AlexNet_topK_5,1,685,NaN,bottle,chair,NaN,chair5-truck3.png
AlexNet_topK_5,1,686,NaN,dog,chair,NaN,chair6-bird2.png
AlexNet_topK_5,1,687,NaN,dog,chair,NaN,chair6-dog1.png
AlexNet_topK_5,1,688,NaN,cat,chair,NaN,chair6-elephant2.png
AlexNet_topK_5,1,689,NaN,cat,chair,NaN,chair6-truck2.png
AlexNet_topK_5,1,690,NaN,dog,chair,NaN,chair7-airplane1.png
AlexNet_topK_5,1,691,NaN,cat,chair,NaN,chair7-bird1.png
AlexNet_topK_5,1,692,NaN,cat,chair,NaN,chair7-boat3.png
AlexNet_topK_5,1,693,NaN,cat,chair,NaN,chair7-bottle1.png
AlexNet_topK_5,1,694,NaN,dog,chair,NaN,chair7-car2.png
AlexNet_topK_5,1,695,NaN,elephant,chair,NaN,chair7-cat1.png
AlexNet_topK_5,1,696,NaN,knife,chair,NaN,chair7-chair1.png
AlexNet_topK_5,1,697,NaN,cat,chair,NaN,chair7-clock3.png
AlexNet_topK_5,1,698,NaN,cat,chair,NaN,chair7-elephant1.png
AlexNet_topK_5,1,699,NaN,keyboard,chair,NaN,chair7-knife2.png
AlexNet_topK_5,1,700,NaN,bottle,chair,NaN,chair7-truck3.png
AlexNet_topK_5,1,701,NaN,cat,chair,NaN,chair8-airplane1.png
AlexNet_topK_5,1,702,NaN,cat,chair,NaN,chair8-bear1.png
AlexNet_topK_5,1,703,NaN,bottle,chair,NaN,chair8-bicycle3.png
AlexNet_topK_5,1,704,NaN,cat,chair,NaN,chair8-boat1.png
AlexNet_topK_5,1,705,NaN,chair,chair,NaN,chair8-car1.png
AlexNet_topK_5,1,706,NaN,dog,chair,NaN,chair8-chair3.png
AlexNet_topK_5,1,707,NaN,clock,chair,NaN,chair8-clock3.png
AlexNet_topK_5,1,708,NaN,cat,chair,NaN,chair8-elephant1.png
AlexNet_topK_5,1,709,NaN,bear,chair,NaN,chair8-keyboard3.png
AlexNet_topK_5,1,710,NaN,dog,chair,NaN,chair8-knife2.png
AlexNet_topK_5,1,711,NaN,knife,chair,NaN,chair8-oven1.png
AlexNet_topK_5,1,712,NaN,cat,chair,NaN,chair9-bear1.png
AlexNet_topK_5,1,713,NaN,cat,chair,NaN,chair9-bicycle3.png
AlexNet_topK_5,1,714,NaN,cat,chair,NaN,chair9-bird3.png
AlexNet_topK_5,1,715,NaN,cat,chair,NaN,chair9-boat2.png
AlexNet_topK_5,1,716,NaN,dog,chair,NaN,chair9-bottle3.png
AlexNet_topK_5,1,717,NaN,cat,chair,NaN,chair9-chair3.png
AlexNet_topK_5,1,718,NaN,bottle,chair,NaN,chair9-dog2.png
AlexNet_topK_5,1,719,NaN,oven,chair,NaN,chair9-elephant1.png
AlexNet_topK_5,1,720,NaN,cat,chair,NaN,chair9-keyboard2.png
AlexNet_topK_5,1,721,NaN,bird,clock,NaN,clock1-bear1.png
AlexNet_topK_5,1,722,NaN,cat,clock,NaN,clock1-boat3.png
AlexNet_topK_5,1,723,NaN,dog,clock,NaN,clock1-car1.png
AlexNet_topK_5,1,724,NaN,elephant,clock,NaN,clock1-clock2.png
AlexNet_topK_5,1,725,NaN,airplane,clock,NaN,clock1-dog2.png
AlexNet_topK_5,1,726,NaN,oven,clock,NaN,clock1-elephant2.png
AlexNet_topK_5,1,727,NaN,dog,clock,NaN,clock1-truck3.png
AlexNet_topK_5,1,728,NaN,clock,clock,NaN,clock10-airplane1.png
AlexNet_topK_5,1,729,NaN,clock,clock,NaN,clock10-bird3.png
AlexNet_topK_5,1,730,NaN,bottle,clock,NaN,clock10-boat2.png
AlexNet_topK_5,1,731,NaN,bottle,clock,NaN,clock10-bottle1.png
AlexNet_topK_5,1,732,NaN,clock,clock,NaN,clock10-cat1.png
AlexNet_topK_5,1,733,NaN,clock,clock,NaN,clock10-clock3.png
AlexNet_topK_5,1,734,NaN,bicycle,clock,NaN,clock10-dog3.png
AlexNet_topK_5,1,735,NaN,clock,clock,NaN,clock10-knife3.png
AlexNet_topK_5,1,736,NaN,cat,clock,NaN,clock10-oven2.png
AlexNet_topK_5,1,737,NaN,bottle,clock,NaN,clock10-truck2.png
AlexNet_topK_5,1,738,NaN,clock,clock,NaN,clock2-bear2.png
AlexNet_topK_5,1,739,NaN,clock,clock,NaN,clock2-bicycle1.png
AlexNet_topK_5,1,740,NaN,clock,clock,NaN,clock2-bottle3.png
AlexNet_topK_5,1,741,NaN,oven,clock,NaN,clock2-clock3.png
AlexNet_topK_5,1,742,NaN,oven,clock,NaN,clock2-dog1.png
AlexNet_topK_5,1,743,NaN,clock,clock,NaN,clock2-elephant2.png
AlexNet_topK_5,1,744,NaN,oven,clock,NaN,clock2-knife1.png
AlexNet_topK_5,1,745,NaN,oven,clock,NaN,clock3-bear3.png
AlexNet_topK_5,1,746,NaN,oven,clock,NaN,clock3-bicycle2.png
AlexNet_topK_5,1,747,NaN,bottle,clock,NaN,clock3-bird1.png
AlexNet_topK_5,1,748,NaN,clock,clock,NaN,clock3-car2.png
AlexNet_topK_5,1,749,NaN,clock,clock,NaN,clock3-cat1.png
AlexNet_topK_5,1,750,NaN,cat,clock,NaN,clock3-dog2.png
AlexNet_topK_5,1,751,NaN,oven,clock,NaN,clock3-elephant3.png
AlexNet_topK_5,1,752,NaN,cat,clock,NaN,clock3-keyboard3.png
AlexNet_topK_5,1,753,NaN,bottle,clock,NaN,clock4-airplane1.png
AlexNet_topK_5,1,754,NaN,bottle,clock,NaN,clock4-bird3.png
AlexNet_topK_5,1,755,NaN,bicycle,clock,NaN,clock4-boat3.png
AlexNet_topK_5,1,756,NaN,oven,clock,NaN,clock4-bottle3.png
AlexNet_topK_5,1,757,NaN,bottle,clock,NaN,clock4-car2.png
AlexNet_topK_5,1,758,NaN,oven,clock,NaN,clock4-chair1.png
AlexNet_topK_5,1,759,NaN,bear,clock,NaN,clock4-elephant2.png
AlexNet_topK_5,1,760,NaN,oven,clock,NaN,clock4-knife1.png
AlexNet_topK_5,1,761,NaN,oven,clock,NaN,clock4-oven1.png
AlexNet_topK_5,1,762,NaN,bottle,clock,NaN,clock5-airplane1.png
AlexNet_topK_5,1,763,NaN,oven,clock,NaN,clock5-bicycle1.png
AlexNet_topK_5,1,764,NaN,bottle,clock,NaN,clock5-chair3.png
AlexNet_topK_5,1,765,NaN,oven,clock,NaN,clock5-clock2.png
AlexNet_topK_5,1,766,NaN,cat,clock,NaN,clock5-elephant2.png
AlexNet_topK_5,1,767,NaN,bottle,clock,NaN,clock5-keyboard1.png
AlexNet_topK_5,1,768,NaN,oven,clock,NaN,clock5-oven1.png
AlexNet_topK_5,1,769,NaN,clock,clock,NaN,clock6-bicycle1.png
AlexNet_topK_5,1,770,NaN,clock,clock,NaN,clock6-bird3.png
AlexNet_topK_5,1,771,NaN,clock,clock,NaN,clock6-bottle1.png
AlexNet_topK_5,1,772,NaN,clock,clock,NaN,clock6-car2.png
AlexNet_topK_5,1,773,NaN,clock,clock,NaN,clock6-chair3.png
AlexNet_topK_5,1,774,NaN,clock,clock,NaN,clock6-clock2.png
AlexNet_topK_5,1,775,NaN,keyboard,clock,NaN,clock6-knife2.png
AlexNet_topK_5,1,776,NaN,bottle,clock,NaN,clock6-oven1.png
AlexNet_topK_5,1,777,NaN,clock,clock,NaN,clock6-truck3.png
AlexNet_topK_5,1,778,NaN,oven,clock,NaN,clock7-bear2.png
AlexNet_topK_5,1,779,NaN,clock,clock,NaN,clock7-bicycle1.png
AlexNet_topK_5,1,780,NaN,clock,clock,NaN,clock7-boat3.png
AlexNet_topK_5,1,781,NaN,clock,clock,NaN,clock7-bottle2.png
AlexNet_topK_5,1,782,NaN,clock,clock,NaN,clock7-car1.png
AlexNet_topK_5,1,783,NaN,oven,clock,NaN,clock7-cat2.png
AlexNet_topK_5,1,784,NaN,oven,clock,NaN,clock7-dog2.png
AlexNet_topK_5,1,785,NaN,bottle,clock,NaN,clock7-keyboard2.png
AlexNet_topK_5,1,786,NaN,bottle,clock,NaN,clock7-truck3.png
AlexNet_topK_5,1,787,NaN,bottle,clock,NaN,clock8-airplane2.png
AlexNet_topK_5,1,788,NaN,bottle,clock,NaN,clock8-bear2.png
AlexNet_topK_5,1,789,NaN,bicycle,clock,NaN,clock8-boat1.png
AlexNet_topK_5,1,790,NaN,oven,clock,NaN,clock8-cat1.png
AlexNet_topK_5,1,791,NaN,bottle,clock,NaN,clock8-chair2.png
AlexNet_topK_5,1,792,NaN,cat,clock,NaN,clock8-keyboard1.png
AlexNet_topK_5,1,793,NaN,bottle,clock,NaN,clock8-knife1.png
AlexNet_topK_5,1,794,NaN,bottle,clock,NaN,clock8-oven3.png
AlexNet_topK_5,1,795,NaN,clock,clock,NaN,clock8-truck2.png
AlexNet_topK_5,1,796,NaN,cat,clock,NaN,clock9-airplane1.png
AlexNet_topK_5,1,797,NaN,airplane,clock,NaN,clock9-bird2.png
AlexNet_topK_5,1,798,NaN,clock,clock,NaN,clock9-cat1.png
AlexNet_topK_5,1,799,NaN,cat,clock,NaN,clock9-chair3.png
AlexNet_topK_5,1,800,NaN,cat,clock,NaN,clock9-keyboard2.png
AlexNet_topK_5,1,801,NaN,knife,dog,NaN,dog1-airplane3.png
AlexNet_topK_5,1,802,NaN,dog,dog,NaN,dog1-bear1.png
AlexNet_topK_5,1,803,NaN,dog,dog,NaN,dog1-bird1.png
AlexNet_topK_5,1,804,NaN,bicycle,dog,NaN,dog1-boat3.png
AlexNet_topK_5,1,805,NaN,cat,dog,NaN,dog1-car2.png
AlexNet_topK_5,1,806,NaN,dog,dog,NaN,dog1-cat3.png
AlexNet_topK_5,1,807,NaN,bottle,dog,NaN,dog1-chair1.png
AlexNet_topK_5,1,808,NaN,dog,dog,NaN,dog1-dog2.png
AlexNet_topK_5,1,809,NaN,dog,dog,NaN,dog1-knife3.png
AlexNet_topK_5,1,810,NaN,bottle,dog,NaN,dog10-airplane1.png
AlexNet_topK_5,1,811,NaN,bottle,dog,NaN,dog10-bicycle1.png
AlexNet_topK_5,1,812,NaN,bicycle,dog,NaN,dog10-bottle1.png
AlexNet_topK_5,1,813,NaN,cat,dog,NaN,dog10-car3.png
AlexNet_topK_5,1,814,NaN,clock,dog,NaN,dog10-clock1.png
AlexNet_topK_5,1,815,NaN,bottle,dog,NaN,dog10-dog1.png
AlexNet_topK_5,1,816,NaN,cat,dog,NaN,dog10-elephant1.png
AlexNet_topK_5,1,817,NaN,oven,dog,NaN,dog10-keyboard2.png
AlexNet_topK_5,1,818,NaN,cat,dog,NaN,dog10-oven2.png
AlexNet_topK_5,1,819,NaN,dog,dog,NaN,dog10-truck2.png
AlexNet_topK_5,1,820,NaN,bottle,dog,NaN,dog2-airplane2.png
AlexNet_topK_5,1,821,NaN,cat,dog,NaN,dog2-bicycle2.png
AlexNet_topK_5,1,822,NaN,dog,dog,NaN,dog2-bottle2.png
AlexNet_topK_5,1,823,NaN,dog,dog,NaN,dog2-cat1.png
AlexNet_topK_5,1,824,NaN,airplane,dog,NaN,dog2-dog3.png
AlexNet_topK_5,1,825,NaN,dog,dog,NaN,dog2-knife3.png
AlexNet_topK_5,1,826,NaN,dog,dog,NaN,dog3-bear3.png
AlexNet_topK_5,1,827,NaN,chair,dog,NaN,dog3-bird2.png
AlexNet_topK_5,1,828,NaN,bird,dog,NaN,dog3-boat1.png
AlexNet_topK_5,1,829,NaN,bottle,dog,NaN,dog3-clock1.png
AlexNet_topK_5,1,830,NaN,cat,dog,NaN,dog3-dog1.png
AlexNet_topK_5,1,831,NaN,cat,dog,NaN,dog3-elephant2.png
AlexNet_topK_5,1,832,NaN,chair,dog,NaN,dog3-keyboard1.png
AlexNet_topK_5,1,833,NaN,bird,dog,NaN,dog3-knife3.png
AlexNet_topK_5,1,834,NaN,chair,dog,NaN,dog3-truck2.png
AlexNet_topK_5,1,835,NaN,bird,dog,NaN,dog4-airplane3.png
AlexNet_topK_5,1,836,NaN,dog,dog,NaN,dog4-bicycle1.png
AlexNet_topK_5,1,837,NaN,cat,dog,NaN,dog4-bird1.png
AlexNet_topK_5,1,838,NaN,elephant,dog,NaN,dog4-bottle2.png
AlexNet_topK_5,1,839,NaN,cat,dog,NaN,dog4-cat3.png
AlexNet_topK_5,1,840,NaN,cat,dog,NaN,dog4-chair1.png
AlexNet_topK_5,1,841,NaN,clock,dog,NaN,dog4-clock1.png
AlexNet_topK_5,1,842,NaN,cat,dog,NaN,dog4-elephant2.png
AlexNet_topK_5,1,843,NaN,keyboard,dog,NaN,dog4-keyboard2.png
AlexNet_topK_5,1,844,NaN,cat,dog,NaN,dog4-oven1.png
AlexNet_topK_5,1,845,NaN,cat,dog,NaN,dog4-truck2.png
AlexNet_topK_5,1,846,NaN,clock,dog,NaN,dog5-bear3.png
AlexNet_topK_5,1,847,NaN,cat,dog,NaN,dog5-boat3.png
AlexNet_topK_5,1,848,NaN,clock,dog,NaN,dog5-car3.png
AlexNet_topK_5,1,849,NaN,elephant,dog,NaN,dog5-elephant1.png
AlexNet_topK_5,1,850,NaN,oven,dog,NaN,dog5-knife2.png
AlexNet_topK_5,1,851,NaN,cat,dog,NaN,dog5-oven1.png
AlexNet_topK_5,1,852,NaN,bicycle,dog,NaN,dog5-truck2.png
AlexNet_topK_5,1,853,NaN,bird,dog,NaN,dog6-bicycle1.png
AlexNet_topK_5,1,854,NaN,oven,dog,NaN,dog6-bird1.png
AlexNet_topK_5,1,855,NaN,bottle,dog,NaN,dog6-cat1.png
AlexNet_topK_5,1,856,NaN,bottle,dog,NaN,dog6-clock1.png
AlexNet_topK_5,1,857,NaN,keyboard,dog,NaN,dog6-elephant2.png
AlexNet_topK_5,1,858,NaN,clock,dog,NaN,dog6-truck2.png
AlexNet_topK_5,1,859,NaN,clock,dog,NaN,dog7-bird3.png
AlexNet_topK_5,1,860,NaN,bird,dog,NaN,dog7-car2.png
AlexNet_topK_5,1,861,NaN,dog,dog,NaN,dog7-chair2.png
AlexNet_topK_5,1,862,NaN,bear,dog,NaN,dog7-keyboard3.png
AlexNet_topK_5,1,863,NaN,cat,dog,NaN,dog7-knife3.png
AlexNet_topK_5,1,864,NaN,dog,dog,NaN,dog7-oven2.png
AlexNet_topK_5,1,865,NaN,cat,dog,NaN,dog8-bear3.png
AlexNet_topK_5,1,866,NaN,dog,dog,NaN,dog8-boat3.png
AlexNet_topK_5,1,867,NaN,clock,dog,NaN,dog8-bottle2.png
AlexNet_topK_5,1,868,NaN,cat,dog,NaN,dog8-chair3.png
AlexNet_topK_5,1,869,NaN,bicycle,dog,NaN,dog8-clock2.png
AlexNet_topK_5,1,870,NaN,bottle,dog,NaN,dog8-dog3.png
AlexNet_topK_5,1,871,NaN,bird,dog,NaN,dog8-keyboard3.png
AlexNet_topK_5,1,872,NaN,cat,dog,NaN,dog8-oven3.png
AlexNet_topK_5,1,873,NaN,bottle,dog,NaN,dog9-airplane3.png
AlexNet_topK_5,1,874,NaN,bottle,dog,NaN,dog9-bear3.png
AlexNet_topK_5,1,875,NaN,clock,dog,NaN,dog9-bicycle3.png
AlexNet_topK_5,1,876,NaN,bottle,dog,NaN,dog9-boat1.png
AlexNet_topK_5,1,877,NaN,bicycle,dog,NaN,dog9-bottle1.png
AlexNet_topK_5,1,878,NaN,bottle,dog,NaN,dog9-car1.png
AlexNet_topK_5,1,879,NaN,bottle,dog,NaN,dog9-cat1.png
AlexNet_topK_5,1,880,NaN,dog,dog,NaN,dog9-chair2.png
AlexNet_topK_5,1,881,NaN,bottle,elephant,NaN,elephant1-airplane2.png
AlexNet_topK_5,1,882,NaN,cat,elephant,NaN,elephant1-bear2.png
AlexNet_topK_5,1,883,NaN,dog,elephant,NaN,elephant1-boat2.png
AlexNet_topK_5,1,884,NaN,elephant,elephant,NaN,elephant1-bottle1.png
AlexNet_topK_5,1,885,NaN,cat,elephant,NaN,elephant1-car3.png
AlexNet_topK_5,1,886,NaN,dog,elephant,NaN,elephant1-chair1.png
AlexNet_topK_5,1,887,NaN,cat,elephant,NaN,elephant1-dog2.png
AlexNet_topK_5,1,888,NaN,cat,elephant,NaN,elephant1-keyboard3.png
AlexNet_topK_5,1,889,NaN,elephant,elephant,NaN,elephant1-oven2.png
AlexNet_topK_5,1,890,NaN,cat,elephant,NaN,elephant10-bear1.png
AlexNet_topK_5,1,891,NaN,cat,elephant,NaN,elephant10-elephant1.png
AlexNet_topK_5,1,892,NaN,bird,elephant,NaN,elephant10-keyboard1.png
AlexNet_topK_5,1,893,NaN,oven,elephant,NaN,elephant10-knife3.png
AlexNet_topK_5,1,894,NaN,cat,elephant,NaN,elephant2-airplane3.png
AlexNet_topK_5,1,895,NaN,bottle,elephant,NaN,elephant2-bear3.png
AlexNet_topK_5,1,896,NaN,oven,elephant,NaN,elephant2-bird1.png
AlexNet_topK_5,1,897,NaN,bottle,elephant,NaN,elephant2-boat1.png
AlexNet_topK_5,1,898,NaN,bottle,elephant,NaN,elephant2-bottle3.png
AlexNet_topK_5,1,899,NaN,keyboard,elephant,NaN,elephant2-cat1.png
AlexNet_topK_5,1,900,NaN,clock,elephant,NaN,elephant2-clock1.png
AlexNet_topK_5,1,901,NaN,cat,elephant,NaN,elephant2-elephant3.png
AlexNet_topK_5,1,902,NaN,cat,elephant,NaN,elephant2-keyboard3.png
AlexNet_topK_5,1,903,NaN,chair,elephant,NaN,elephant2-truck2.png
AlexNet_topK_5,1,904,NaN,cat,elephant,NaN,elephant3-cat2.png
AlexNet_topK_5,1,905,NaN,elephant,elephant,NaN,elephant3-chair1.png
AlexNet_topK_5,1,906,NaN,dog,elephant,NaN,elephant3-keyboard2.png
AlexNet_topK_5,1,907,NaN,cat,elephant,NaN,elephant3-knife1.png
AlexNet_topK_5,1,908,NaN,oven,elephant,NaN,elephant3-oven1.png
AlexNet_topK_5,1,909,NaN,clock,elephant,NaN,elephant3-truck1.png
AlexNet_topK_5,1,910,NaN,cat,elephant,NaN,elephant4-bicycle2.png
AlexNet_topK_5,1,911,NaN,bird,elephant,NaN,elephant4-bird1.png
AlexNet_topK_5,1,912,NaN,dog,elephant,NaN,elephant4-boat3.png
AlexNet_topK_5,1,913,NaN,bicycle,elephant,NaN,elephant4-car3.png
AlexNet_topK_5,1,914,NaN,cat,elephant,NaN,elephant4-chair3.png
AlexNet_topK_5,1,915,NaN,dog,elephant,NaN,elephant4-clock3.png
AlexNet_topK_5,1,916,NaN,bicycle,elephant,NaN,elephant4-oven1.png
AlexNet_topK_5,1,917,NaN,oven,elephant,NaN,elephant5-bear2.png
AlexNet_topK_5,1,918,NaN,cat,elephant,NaN,elephant5-bicycle3.png
AlexNet_topK_5,1,919,NaN,keyboard,elephant,NaN,elephant5-bottle2.png
AlexNet_topK_5,1,920,NaN,dog,elephant,NaN,elephant5-car1.png
AlexNet_topK_5,1,921,NaN,clock,elephant,NaN,elephant5-chair3.png
AlexNet_topK_5,1,922,NaN,bird,elephant,NaN,elephant5-elephant1.png
AlexNet_topK_5,1,923,NaN,dog,elephant,NaN,elephant5-truck1.png
AlexNet_topK_5,1,924,NaN,keyboard,elephant,NaN,elephant6-bicycle1.png
AlexNet_topK_5,1,925,NaN,cat,elephant,NaN,elephant6-bird1.png
AlexNet_topK_5,1,926,NaN,cat,elephant,NaN,elephant6-bottle2.png
AlexNet_topK_5,1,927,NaN,oven,elephant,NaN,elephant6-car3.png
AlexNet_topK_5,1,928,NaN,cat,elephant,NaN,elephant6-cat2.png
AlexNet_topK_5,1,929,NaN,cat,elephant,NaN,elephant6-dog2.png
AlexNet_topK_5,1,930,NaN,dog,elephant,NaN,elephant6-knife2.png
AlexNet_topK_5,1,931,NaN,cat,elephant,NaN,elephant6-oven1.png
AlexNet_topK_5,1,932,NaN,dog,elephant,NaN,elephant6-truck3.png
AlexNet_topK_5,1,933,NaN,oven,elephant,NaN,elephant7-airplane3.png
AlexNet_topK_5,1,934,NaN,elephant,elephant,NaN,elephant7-bear3.png
AlexNet_topK_5,1,935,NaN,cat,elephant,NaN,elephant7-bird1.png
AlexNet_topK_5,1,936,NaN,oven,elephant,NaN,elephant7-bottle3.png
AlexNet_topK_5,1,937,NaN,keyboard,elephant,NaN,elephant7-car3.png
AlexNet_topK_5,1,938,NaN,bird,elephant,NaN,elephant7-cat1.png
AlexNet_topK_5,1,939,NaN,oven,elephant,NaN,elephant7-clock2.png
AlexNet_topK_5,1,940,NaN,bear,elephant,NaN,elephant7-dog1.png
AlexNet_topK_5,1,941,NaN,cat,elephant,NaN,elephant7-keyboard3.png
AlexNet_topK_5,1,942,NaN,elephant,elephant,NaN,elephant7-knife2.png
AlexNet_topK_5,1,943,NaN,elephant,elephant,NaN,elephant8-airplane3.png
AlexNet_topK_5,1,944,NaN,dog,elephant,NaN,elephant8-bicycle3.png
AlexNet_topK_5,1,945,NaN,cat,elephant,NaN,elephant8-bird2.png
AlexNet_topK_5,1,946,NaN,bird,elephant,NaN,elephant8-boat2.png
AlexNet_topK_5,1,947,NaN,cat,elephant,NaN,elephant8-cat1.png
AlexNet_topK_5,1,948,NaN,cat,elephant,NaN,elephant8-clock2.png
AlexNet_topK_5,1,949,NaN,dog,elephant,NaN,elephant8-dog1.png
AlexNet_topK_5,1,950,NaN,elephant,elephant,NaN,elephant8-elephant1.png
AlexNet_topK_5,1,951,NaN,cat,elephant,NaN,elephant8-knife2.png
AlexNet_topK_5,1,952,NaN,cat,elephant,NaN,elephant8-oven3.png
AlexNet_topK_5,1,953,NaN,cat,elephant,NaN,elephant8-truck3.png
AlexNet_topK_5,1,954,NaN,cat,elephant,NaN,elephant9-airplane2.png
AlexNet_topK_5,1,955,NaN,cat,elephant,NaN,elephant9-bicycle2.png
AlexNet_topK_5,1,956,NaN,dog,elephant,NaN,elephant9-boat3.png
AlexNet_topK_5,1,957,NaN,dog,elephant,NaN,elephant9-chair2.png
AlexNet_topK_5,1,958,NaN,dog,elephant,NaN,elephant9-clock3.png
AlexNet_topK_5,1,959,NaN,bicycle,elephant,NaN,elephant9-dog3.png
AlexNet_topK_5,1,960,NaN,oven,elephant,NaN,elephant9-elephant3.png
AlexNet_topK_5,1,961,NaN,bottle,keyboard,NaN,keyboard1-airplane2.png
AlexNet_topK_5,1,962,NaN,bird,keyboard,NaN,keyboard1-bear2.png
AlexNet_topK_5,1,963,NaN,cat,keyboard,NaN,keyboard1-bird2.png
AlexNet_topK_5,1,964,NaN,bottle,keyboard,NaN,keyboard1-car3.png
AlexNet_topK_5,1,965,NaN,cat,keyboard,NaN,keyboard1-chair2.png
AlexNet_topK_5,1,966,NaN,bottle,keyboard,NaN,keyboard1-clock1.png
AlexNet_topK_5,1,967,NaN,airplane,keyboard,NaN,keyboard1-dog3.png
AlexNet_topK_5,1,968,NaN,cat,keyboard,NaN,keyboard1-elephant3.png
AlexNet_topK_5,1,969,NaN,oven,keyboard,NaN,keyboard10-airplane3.png
AlexNet_topK_5,1,970,NaN,keyboard,keyboard,NaN,keyboard10-boat2.png
AlexNet_topK_5,1,971,NaN,dog,keyboard,NaN,keyboard10-car1.png
AlexNet_topK_5,1,972,NaN,dog,keyboard,NaN,keyboard10-keyboard1.png
AlexNet_topK_5,1,973,NaN,bicycle,keyboard,NaN,keyboard10-oven3.png
AlexNet_topK_5,1,974,NaN,cat,keyboard,NaN,keyboard10-truck1.png
AlexNet_topK_5,1,975,NaN,dog,keyboard,NaN,keyboard2-bicycle3.png
AlexNet_topK_5,1,976,NaN,cat,keyboard,NaN,keyboard2-bottle1.png
AlexNet_topK_5,1,977,NaN,cat,keyboard,NaN,keyboard2-clock1.png
AlexNet_topK_5,1,978,NaN,cat,keyboard,NaN,keyboard2-elephant1.png
AlexNet_topK_5,1,979,NaN,dog,keyboard,NaN,keyboard2-knife1.png
AlexNet_topK_5,1,980,NaN,cat,keyboard,NaN,keyboard3-bicycle2.png
AlexNet_topK_5,1,981,NaN,elephant,keyboard,NaN,keyboard3-bird3.png
AlexNet_topK_5,1,982,NaN,keyboard,keyboard,NaN,keyboard3-boat1.png
AlexNet_topK_5,1,983,NaN,dog,keyboard,NaN,keyboard3-car2.png
AlexNet_topK_5,1,984,NaN,cat,keyboard,NaN,keyboard3-cat1.png
AlexNet_topK_5,1,985,NaN,oven,keyboard,NaN,keyboard3-clock3.png
AlexNet_topK_5,1,986,NaN,elephant,keyboard,NaN,keyboard3-elephant2.png
AlexNet_topK_5,1,987,NaN,cat,keyboard,NaN,keyboard4-bird1.png
AlexNet_topK_5,1,988,NaN,bird,keyboard,NaN,keyboard4-bottle2.png
AlexNet_topK_5,1,989,NaN,cat,keyboard,NaN,keyboard4-cat2.png
AlexNet_topK_5,1,990,NaN,dog,keyboard,NaN,keyboard4-clock2.png
AlexNet_topK_5,1,991,NaN,cat,keyboard,NaN,keyboard4-keyboard2.png
AlexNet_topK_5,1,992,NaN,dog,keyboard,NaN,keyboard4-knife2.png
AlexNet_topK_5,1,993,NaN,cat,keyboard,NaN,keyboard4-oven2.png
AlexNet_topK_5,1,994,NaN,cat,keyboard,NaN,keyboard4-truck3.png
AlexNet_topK_5,1,995,NaN,dog,keyboard,NaN,keyboard5-airplane3.png
AlexNet_topK_5,1,996,NaN,cat,keyboard,NaN,keyboard5-bear3.png
AlexNet_topK_5,1,997,NaN,cat,keyboard,NaN,keyboard5-bicycle1.png
AlexNet_topK_5,1,998,NaN,cat,keyboard,NaN,keyboard5-bird3.png
AlexNet_topK_5,1,999,NaN,cat,keyboard,NaN,keyboard5-bottle1.png
AlexNet_topK_5,1,1000,NaN,cat,keyboard,NaN,keyboard5-cat1.png
AlexNet_topK_5,1,1001,NaN,bottle,keyboard,NaN,keyboard5-dog3.png
AlexNet_topK_5,1,1002,NaN,cat,keyboard,NaN,keyboard5-keyboard1.png
AlexNet_topK_5,1,1003,NaN,dog,keyboard,NaN,keyboard5-knife2.png
AlexNet_topK_5,1,1004,NaN,cat,keyboard,NaN,keyboard5-oven2.png
AlexNet_topK_5,1,1005,NaN,oven,keyboard,NaN,keyboard6-bear2.png
AlexNet_topK_5,1,1006,NaN,oven,keyboard,NaN,keyboard6-bicycle1.png
AlexNet_topK_5,1,1007,NaN,dog,keyboard,NaN,keyboard6-boat2.png
AlexNet_topK_5,1,1008,NaN,bottle,keyboard,NaN,keyboard6-bottle2.png
AlexNet_topK_5,1,1009,NaN,cat,keyboard,NaN,keyboard6-car2.png
AlexNet_topK_5,1,1010,NaN,clock,keyboard,NaN,keyboard6-chair1.png
AlexNet_topK_5,1,1011,NaN,bottle,keyboard,NaN,keyboard6-dog2.png
AlexNet_topK_5,1,1012,NaN,cat,keyboard,NaN,keyboard6-elephant1.png
AlexNet_topK_5,1,1013,NaN,dog,keyboard,NaN,keyboard6-knife2.png
AlexNet_topK_5,1,1014,NaN,cat,keyboard,NaN,keyboard7-bear2.png
AlexNet_topK_5,1,1015,NaN,cat,keyboard,NaN,keyboard7-boat2.png
AlexNet_topK_5,1,1016,NaN,cat,keyboard,NaN,keyboard7-bottle1.png
AlexNet_topK_5,1,1017,NaN,knife,keyboard,NaN,keyboard7-car3.png
AlexNet_topK_5,1,1018,NaN,dog,keyboard,NaN,keyboard7-chair3.png
AlexNet_topK_5,1,1019,NaN,cat,keyboard,NaN,keyboard7-clock3.png
AlexNet_topK_5,1,1020,NaN,cat,keyboard,NaN,keyboard7-dog1.png
AlexNet_topK_5,1,1021,NaN,cat,keyboard,NaN,keyboard7-knife1.png
AlexNet_topK_5,1,1022,NaN,cat,keyboard,NaN,keyboard7-oven2.png
AlexNet_topK_5,1,1023,NaN,dog,keyboard,NaN,keyboard7-truck2.png
AlexNet_topK_5,1,1024,NaN,cat,keyboard,NaN,keyboard8-airplane2.png
AlexNet_topK_5,1,1025,NaN,cat,keyboard,NaN,keyboard8-cat3.png
AlexNet_topK_5,1,1026,NaN,dog,keyboard,NaN,keyboard8-chair2.png
AlexNet_topK_5,1,1027,NaN,cat,keyboard,NaN,keyboard8-dog3.png
AlexNet_topK_5,1,1028,NaN,cat,keyboard,NaN,keyboard8-keyboard2.png
AlexNet_topK_5,1,1029,NaN,oven,keyboard,NaN,keyboard8-oven1.png
AlexNet_topK_5,1,1030,NaN,dog,keyboard,NaN,keyboard8-truck3.png
AlexNet_topK_5,1,1031,NaN,bottle,keyboard,NaN,keyboard9-airplane3.png
AlexNet_topK_5,1,1032,NaN,cat,keyboard,NaN,keyboard9-bear2.png
AlexNet_topK_5,1,1033,NaN,dog,keyboard,NaN,keyboard9-bicycle2.png
AlexNet_topK_5,1,1034,NaN,oven,keyboard,NaN,keyboard9-bird1.png
AlexNet_topK_5,1,1035,NaN,cat,keyboard,NaN,keyboard9-boat2.png
AlexNet_topK_5,1,1036,NaN,cat,keyboard,NaN,keyboard9-cat1.png
AlexNet_topK_5,1,1037,NaN,dog,keyboard,NaN,keyboard9-chair2.png
AlexNet_topK_5,1,1038,NaN,bird,keyboard,NaN,keyboard9-elephant2.png
AlexNet_topK_5,1,1039,NaN,cat,keyboard,NaN,keyboard9-keyboard2.png
AlexNet_topK_5,1,1040,NaN,cat,keyboard,NaN,keyboard9-truck3.png
AlexNet_topK_5,1,1041,NaN,oven,knife,NaN,knife1-airplane1.png
AlexNet_topK_5,1,1042,NaN,elephant,knife,NaN,knife1-bird2.png
AlexNet_topK_5,1,1043,NaN,dog,knife,NaN,knife1-car3.png
AlexNet_topK_5,1,1044,NaN,bicycle,knife,NaN,knife1-chair1.png
AlexNet_topK_5,1,1045,NaN,dog,knife,NaN,knife1-clock2.png
AlexNet_topK_5,1,1046,NaN,dog,knife,NaN,knife1-dog1.png
AlexNet_topK_5,1,1047,NaN,cat,knife,NaN,knife1-elephant1.png
AlexNet_topK_5,1,1048,NaN,cat,knife,NaN,knife1-keyboard3.png
AlexNet_topK_5,1,1049,NaN,cat,knife,NaN,knife1-oven1.png
AlexNet_topK_5,1,1050,NaN,cat,knife,NaN,knife1-truck2.png
AlexNet_topK_5,1,1051,NaN,dog,knife,NaN,knife10-bear3.png
AlexNet_topK_5,1,1052,NaN,bicycle,knife,NaN,knife10-chair1.png
AlexNet_topK_5,1,1053,NaN,elephant,knife,NaN,knife10-dog1.png
AlexNet_topK_5,1,1054,NaN,cat,knife,NaN,knife10-elephant3.png
AlexNet_topK_5,1,1055,NaN,bicycle,knife,NaN,knife10-keyboard3.png
AlexNet_topK_5,1,1056,NaN,bottle,knife,NaN,knife10-knife1.png
AlexNet_topK_5,1,1057,NaN,cat,knife,NaN,knife10-oven3.png
AlexNet_topK_5,1,1058,NaN,cat,knife,NaN,knife2-bear2.png
AlexNet_topK_5,1,1059,NaN,bicycle,knife,NaN,knife2-bicycle3.png
AlexNet_topK_5,1,1060,NaN,cat,knife,NaN,knife2-bird1.png
AlexNet_topK_5,1,1061,NaN,bottle,knife,NaN,knife2-bottle2.png
AlexNet_topK_5,1,1062,NaN,dog,knife,NaN,knife2-car3.png
AlexNet_topK_5,1,1063,NaN,bird,knife,NaN,knife2-cat3.png
AlexNet_topK_5,1,1064,NaN,dog,knife,NaN,knife2-dog1.png
AlexNet_topK_5,1,1065,NaN,elephant,knife,NaN,knife2-elephant2.png
AlexNet_topK_5,1,1066,NaN,bottle,knife,NaN,knife2-truck2.png
AlexNet_topK_5,1,1067,NaN,cat,knife,NaN,knife3-bear2.png
AlexNet_topK_5,1,1068,NaN,car,knife,NaN,knife3-cat1.png
AlexNet_topK_5,1,1069,NaN,knife,knife,NaN,knife3-clock2.png
AlexNet_topK_5,1,1070,NaN,bottle,knife,NaN,knife3-keyboard3.png
AlexNet_topK_5,1,1071,NaN,truck,knife,NaN,knife3-knife1.png
AlexNet_topK_5,1,1072,NaN,cat,knife,NaN,knife4-airplane3.png
AlexNet_topK_5,1,1073,NaN,bird,knife,NaN,knife4-bear1.png
AlexNet_topK_5,1,1074,NaN,elephant,knife,NaN,knife4-boat1.png
AlexNet_topK_5,1,1075,NaN,bottle,knife,NaN,knife4-car2.png
AlexNet_topK_5,1,1076,NaN,bird,knife,NaN,knife4-cat2.png
AlexNet_topK_5,1,1077,NaN,dog,knife,NaN,knife4-clock3.png
AlexNet_topK_5,1,1078,NaN,bicycle,knife,NaN,knife4-keyboard1.png
AlexNet_topK_5,1,1079,NaN,cat,knife,NaN,knife4-knife2.png
AlexNet_topK_5,1,1080,NaN,knife,knife,NaN,knife4-oven2.png
AlexNet_topK_5,1,1081,NaN,bottle,knife,NaN,knife5-bicycle2.png
AlexNet_topK_5,1,1082,NaN,cat,knife,NaN,knife5-cat2.png
AlexNet_topK_5,1,1083,NaN,oven,knife,NaN,knife5-clock1.png
AlexNet_topK_5,1,1084,NaN,cat,knife,NaN,knife5-dog1.png
AlexNet_topK_5,1,1085,NaN,cat,knife,NaN,knife5-keyboard3.png
AlexNet_topK_5,1,1086,NaN,dog,knife,NaN,knife5-knife3.png
AlexNet_topK_5,1,1087,NaN,elephant,knife,NaN,knife5-oven2.png
AlexNet_topK_5,1,1088,NaN,cat,knife,NaN,knife5-truck3.png
AlexNet_topK_5,1,1089,NaN,bird,knife,NaN,knife6-airplane1.png
AlexNet_topK_5,1,1090,NaN,cat,knife,NaN,knife6-bicycle1.png
AlexNet_topK_5,1,1091,NaN,cat,knife,NaN,knife6-bird1.png
AlexNet_topK_5,1,1092,NaN,cat,knife,NaN,knife6-boat3.png
AlexNet_topK_5,1,1093,NaN,cat,knife,NaN,knife6-bottle3.png
AlexNet_topK_5,1,1094,NaN,bottle,knife,NaN,knife6-chair3.png
AlexNet_topK_5,1,1095,NaN,cat,knife,NaN,knife6-clock2.png
AlexNet_topK_5,1,1096,NaN,dog,knife,NaN,knife6-dog2.png
AlexNet_topK_5,1,1097,NaN,dog,knife,NaN,knife6-knife1.png
AlexNet_topK_5,1,1098,NaN,dog,knife,NaN,knife6-oven3.png
AlexNet_topK_5,1,1099,NaN,dog,knife,NaN,knife6-truck1.png
AlexNet_topK_5,1,1100,NaN,airplane,knife,NaN,knife7-airplane3.png
AlexNet_topK_5,1,1101,NaN,bird,knife,NaN,knife7-bird3.png
AlexNet_topK_5,1,1102,NaN,dog,knife,NaN,knife7-boat3.png
AlexNet_topK_5,1,1103,NaN,bottle,knife,NaN,knife7-bottle3.png
AlexNet_topK_5,1,1104,NaN,dog,knife,NaN,knife7-car2.png
AlexNet_topK_5,1,1105,NaN,dog,knife,NaN,knife7-chair2.png
AlexNet_topK_5,1,1106,NaN,cat,knife,NaN,knife7-elephant2.png
AlexNet_topK_5,1,1107,NaN,cat,knife,NaN,knife8-bicycle1.png
AlexNet_topK_5,1,1108,NaN,cat,knife,NaN,knife8-boat1.png
AlexNet_topK_5,1,1109,NaN,bottle,knife,NaN,knife8-bottle3.png
AlexNet_topK_5,1,1110,NaN,dog,knife,NaN,knife8-car2.png
AlexNet_topK_5,1,1111,NaN,cat,knife,NaN,knife8-cat2.png
AlexNet_topK_5,1,1112,NaN,bicycle,knife,NaN,knife8-truck3.png
AlexNet_topK_5,1,1113,NaN,dog,knife,NaN,knife9-airplane2.png
AlexNet_topK_5,1,1114,NaN,clock,knife,NaN,knife9-bear3.png
AlexNet_topK_5,1,1115,NaN,oven,knife,NaN,knife9-bicycle1.png
AlexNet_topK_5,1,1116,NaN,cat,knife,NaN,knife9-bird1.png
AlexNet_topK_5,1,1117,NaN,dog,knife,NaN,knife9-boat1.png
AlexNet_topK_5,1,1118,NaN,bicycle,knife,NaN,knife9-bottle2.png
AlexNet_topK_5,1,1119,NaN,bottle,knife,NaN,knife9-chair1.png
AlexNet_topK_5,1,1120,NaN,bottle,knife,NaN,knife9-elephant2.png
AlexNet_topK_5,1,1121,NaN,keyboard,oven,NaN,oven1-bird3.png
AlexNet_topK_5,1,1122,NaN,bird,oven,NaN,oven1-boat3.png
AlexNet_topK_5,1,1123,NaN,chair,oven,NaN,oven1-cat1.png
AlexNet_topK_5,1,1124,NaN,oven,oven,NaN,oven1-clock3.png
AlexNet_topK_5,1,1125,NaN,cat,oven,NaN,oven1-dog3.png
AlexNet_topK_5,1,1126,NaN,cat,oven,NaN,oven10-airplane2.png
AlexNet_topK_5,1,1127,NaN,cat,oven,NaN,oven10-bear1.png
AlexNet_topK_5,1,1128,NaN,bird,oven,NaN,oven10-bicycle1.png
AlexNet_topK_5,1,1129,NaN,cat,oven,NaN,oven10-boat2.png
AlexNet_topK_5,1,1130,NaN,cat,oven,NaN,oven10-cat2.png
AlexNet_topK_5,1,1131,NaN,knife,oven,NaN,oven10-oven3.png
AlexNet_topK_5,1,1132,NaN,bottle,oven,NaN,oven10-truck2.png
AlexNet_topK_5,1,1133,NaN,cat,oven,NaN,oven2-bear3.png
AlexNet_topK_5,1,1134,NaN,dog,oven,NaN,oven2-bicycle1.png
AlexNet_topK_5,1,1135,NaN,dog,oven,NaN,oven2-bird2.png
AlexNet_topK_5,1,1136,NaN,cat,oven,NaN,oven2-boat3.png
AlexNet_topK_5,1,1137,NaN,cat,oven,NaN,oven2-bottle1.png
AlexNet_topK_5,1,1138,NaN,cat,oven,NaN,oven2-car1.png
AlexNet_topK_5,1,1139,NaN,cat,oven,NaN,oven2-chair1.png
AlexNet_topK_5,1,1140,NaN,cat,oven,NaN,oven2-dog3.png
AlexNet_topK_5,1,1141,NaN,oven,oven,NaN,oven2-oven3.png
AlexNet_topK_5,1,1142,NaN,dog,oven,NaN,oven2-truck3.png
AlexNet_topK_5,1,1143,NaN,cat,oven,NaN,oven3-airplane1.png
AlexNet_topK_5,1,1144,NaN,cat,oven,NaN,oven3-bear2.png
AlexNet_topK_5,1,1145,NaN,dog,oven,NaN,oven3-boat3.png
AlexNet_topK_5,1,1146,NaN,cat,oven,NaN,oven3-bottle3.png
AlexNet_topK_5,1,1147,NaN,dog,oven,NaN,oven3-car2.png
AlexNet_topK_5,1,1148,NaN,cat,oven,NaN,oven3-cat2.png
AlexNet_topK_5,1,1149,NaN,oven,oven,NaN,oven3-clock3.png
AlexNet_topK_5,1,1150,NaN,dog,oven,NaN,oven3-elephant3.png
AlexNet_topK_5,1,1151,NaN,cat,oven,NaN,oven3-knife1.png
AlexNet_topK_5,1,1152,NaN,bottle,oven,NaN,oven3-truck1.png
AlexNet_topK_5,1,1153,NaN,cat,oven,NaN,oven4-bicycle2.png
AlexNet_topK_5,1,1154,NaN,bottle,oven,NaN,oven4-bottle2.png
AlexNet_topK_5,1,1155,NaN,bottle,oven,NaN,oven4-car1.png
AlexNet_topK_5,1,1156,NaN,dog,oven,NaN,oven4-chair1.png
AlexNet_topK_5,1,1157,NaN,chair,oven,NaN,oven4-clock2.png
AlexNet_topK_5,1,1158,NaN,cat,oven,NaN,oven4-dog1.png
AlexNet_topK_5,1,1159,NaN,cat,oven,NaN,oven4-elephant3.png
AlexNet_topK_5,1,1160,NaN,dog,oven,NaN,oven4-keyboard3.png
AlexNet_topK_5,1,1161,NaN,oven,oven,NaN,oven4-knife2.png
AlexNet_topK_5,1,1162,NaN,oven,oven,NaN,oven4-truck3.png
AlexNet_topK_5,1,1163,NaN,cat,oven,NaN,oven5-airplane1.png
AlexNet_topK_5,1,1164,NaN,cat,oven,NaN,oven5-bicycle1.png
AlexNet_topK_5,1,1165,NaN,oven,oven,NaN,oven5-bird1.png
AlexNet_topK_5,1,1166,NaN,clock,oven,NaN,oven5-bottle3.png
AlexNet_topK_5,1,1167,NaN,oven,oven,NaN,oven5-dog3.png
AlexNet_topK_5,1,1168,NaN,cat,oven,NaN,oven5-elephant1.png
AlexNet_topK_5,1,1169,NaN,oven,oven,NaN,oven5-keyboard2.png
AlexNet_topK_5,1,1170,NaN,elephant,oven,NaN,oven6-airplane3.png
AlexNet_topK_5,1,1171,NaN,cat,oven,NaN,oven6-bear2.png
AlexNet_topK_5,1,1172,NaN,bottle,oven,NaN,oven6-bicycle1.png
AlexNet_topK_5,1,1173,NaN,cat,oven,NaN,oven6-bird1.png
AlexNet_topK_5,1,1174,NaN,dog,oven,NaN,oven6-chair3.png
AlexNet_topK_5,1,1175,NaN,cat,oven,NaN,oven6-elephant2.png
AlexNet_topK_5,1,1176,NaN,bottle,oven,NaN,oven6-knife3.png
AlexNet_topK_5,1,1177,NaN,oven,oven,NaN,oven6-oven3.png
AlexNet_topK_5,1,1178,NaN,oven,oven,NaN,oven6-truck1.png
AlexNet_topK_5,1,1179,NaN,dog,oven,NaN,oven7-bottle1.png
AlexNet_topK_5,1,1180,NaN,dog,oven,NaN,oven7-car3.png
AlexNet_topK_5,1,1181,NaN,dog,oven,NaN,oven7-cat1.png
AlexNet_topK_5,1,1182,NaN,oven,oven,NaN,oven7-clock2.png
AlexNet_topK_5,1,1183,NaN,cat,oven,NaN,oven7-dog2.png
AlexNet_topK_5,1,1184,NaN,cat,oven,NaN,oven7-elephant1.png
AlexNet_topK_5,1,1185,NaN,cat,oven,NaN,oven7-keyboard1.png
AlexNet_topK_5,1,1186,NaN,oven,oven,NaN,oven7-oven1.png
AlexNet_topK_5,1,1187,NaN,oven,oven,NaN,oven8-cat3.png
AlexNet_topK_5,1,1188,NaN,dog,oven,NaN,oven8-chair1.png
AlexNet_topK_5,1,1189,NaN,keyboard,oven,NaN,oven8-keyboard3.png
AlexNet_topK_5,1,1190,NaN,bicycle,oven,NaN,oven8-knife2.png
AlexNet_topK_5,1,1191,NaN,bottle,oven,NaN,oven9-airplane2.png
AlexNet_topK_5,1,1192,NaN,dog,oven,NaN,oven9-bear2.png
AlexNet_topK_5,1,1193,NaN,oven,oven,NaN,oven9-bird3.png
AlexNet_topK_5,1,1194,NaN,oven,oven,NaN,oven9-boat2.png
AlexNet_topK_5,1,1195,NaN,bottle,oven,NaN,oven9-car2.png
AlexNet_topK_5,1,1196,NaN,cat,oven,NaN,oven9-chair1.png
AlexNet_topK_5,1,1197,NaN,cat,oven,NaN,oven9-clock2.png
AlexNet_topK_5,1,1198,NaN,oven,oven,NaN,oven9-keyboard1.png
AlexNet_topK_5,1,1199,NaN,clock,oven,NaN,oven9-knife3.png
AlexNet_topK_5,1,1200,NaN,oven,oven,NaN,oven9-oven1.png
AlexNet_topK_5,1,1201,NaN,cat,truck,NaN,truck1-bear1.png
AlexNet_topK_5,1,1202,NaN,car,truck,NaN,truck1-bicycle3.png
AlexNet_topK_5,1,1203,NaN,cat,truck,NaN,truck1-bird1.png
AlexNet_topK_5,1,1204,NaN,truck,truck,NaN,truck1-car3.png
AlexNet_topK_5,1,1205,NaN,truck,truck,NaN,truck1-cat1.png
AlexNet_topK_5,1,1206,NaN,truck,truck,NaN,truck1-chair2.png
AlexNet_topK_5,1,1207,NaN,airplane,truck,NaN,truck1-clock3.png
AlexNet_topK_5,1,1208,NaN,car,truck,NaN,truck1-dog1.png
AlexNet_topK_5,1,1209,NaN,cat,truck,NaN,truck1-knife1.png
AlexNet_topK_5,1,1210,NaN,car,truck,NaN,truck10-airplane1.png
AlexNet_topK_5,1,1211,NaN,car,truck,NaN,truck10-bicycle1.png
AlexNet_topK_5,1,1212,NaN,bicycle,truck,NaN,truck10-car3.png
AlexNet_topK_5,1,1213,NaN,airplane,truck,NaN,truck10-clock1.png
AlexNet_topK_5,1,1214,NaN,oven,truck,NaN,truck10-elephant3.png
AlexNet_topK_5,1,1215,NaN,car,truck,NaN,truck10-truck3.png
AlexNet_topK_5,1,1216,NaN,oven,truck,NaN,truck2-airplane3.png
AlexNet_topK_5,1,1217,NaN,cat,truck,NaN,truck2-bicycle2.png
AlexNet_topK_5,1,1218,NaN,dog,truck,NaN,truck2-bird2.png
AlexNet_topK_5,1,1219,NaN,cat,truck,NaN,truck2-boat3.png
AlexNet_topK_5,1,1220,NaN,dog,truck,NaN,truck2-bottle3.png
AlexNet_topK_5,1,1221,NaN,cat,truck,NaN,truck2-car3.png
AlexNet_topK_5,1,1222,NaN,bicycle,truck,NaN,truck2-chair1.png
AlexNet_topK_5,1,1223,NaN,bottle,truck,NaN,truck2-clock1.png
AlexNet_topK_5,1,1224,NaN,bicycle,truck,NaN,truck2-elephant1.png
AlexNet_topK_5,1,1225,NaN,bottle,truck,NaN,truck2-keyboard1.png
AlexNet_topK_5,1,1226,NaN,cat,truck,NaN,truck2-oven3.png
AlexNet_topK_5,1,1227,NaN,dog,truck,NaN,truck3-bear3.png
AlexNet_topK_5,1,1228,NaN,bicycle,truck,NaN,truck3-bicycle1.png
AlexNet_topK_5,1,1229,NaN,airplane,truck,NaN,truck3-bird2.png
AlexNet_topK_5,1,1230,NaN,oven,truck,NaN,truck3-car3.png
AlexNet_topK_5,1,1231,NaN,car,truck,NaN,truck3-cat1.png
AlexNet_topK_5,1,1232,NaN,oven,truck,NaN,truck3-chair2.png
AlexNet_topK_5,1,1233,NaN,airplane,truck,NaN,truck3-clock3.png
AlexNet_topK_5,1,1234,NaN,car,truck,NaN,truck3-dog3.png
AlexNet_topK_5,1,1235,NaN,dog,truck,NaN,truck3-keyboard3.png
AlexNet_topK_5,1,1236,NaN,bicycle,truck,NaN,truck3-knife2.png
AlexNet_topK_5,1,1237,NaN,bird,truck,NaN,truck3-oven2.png
AlexNet_topK_5,1,1238,NaN,bicycle,truck,NaN,truck4-airplane3.png
AlexNet_topK_5,1,1239,NaN,cat,truck,NaN,truck4-bear1.png
AlexNet_topK_5,1,1240,NaN,bicycle,truck,NaN,truck4-boat3.png
AlexNet_topK_5,1,1241,NaN,bicycle,truck,NaN,truck4-bottle2.png
AlexNet_topK_5,1,1242,NaN,cat,truck,NaN,truck4-knife1.png
AlexNet_topK_5,1,1243,NaN,cat,truck,NaN,truck4-oven2.png
AlexNet_topK_5,1,1244,NaN,dog,truck,NaN,truck5-airplane2.png
AlexNet_topK_5,1,1245,NaN,dog,truck,NaN,truck5-bird2.png
AlexNet_topK_5,1,1246,NaN,dog,truck,NaN,truck5-car1.png
AlexNet_topK_5,1,1247,NaN,cat,truck,NaN,truck5-cat3.png
AlexNet_topK_5,1,1248,NaN,oven,truck,NaN,truck5-dog3.png
AlexNet_topK_5,1,1249,NaN,keyboard,truck,NaN,truck5-keyboard1.png
AlexNet_topK_5,1,1250,NaN,oven,truck,NaN,truck5-knife3.png
AlexNet_topK_5,1,1251,NaN,bicycle,truck,NaN,truck5-truck1.png
AlexNet_topK_5,1,1252,NaN,airplane,truck,NaN,truck6-bear2.png
AlexNet_topK_5,1,1253,NaN,oven,truck,NaN,truck6-bicycle1.png
AlexNet_topK_5,1,1254,NaN,cat,truck,NaN,truck6-boat2.png
AlexNet_topK_5,1,1255,NaN,cat,truck,NaN,truck6-bottle3.png
AlexNet_topK_5,1,1256,NaN,cat,truck,NaN,truck6-cat2.png
AlexNet_topK_5,1,1257,NaN,dog,truck,NaN,truck6-clock2.png
AlexNet_topK_5,1,1258,NaN,knife,truck,NaN,truck6-dog2.png
AlexNet_topK_5,1,1259,NaN,knife,truck,NaN,truck6-knife2.png
AlexNet_topK_5,1,1260,NaN,oven,truck,NaN,truck6-oven3.png
AlexNet_topK_5,1,1261,NaN,oven,truck,NaN,truck6-truck2.png
AlexNet_topK_5,1,1262,NaN,dog,truck,NaN,truck7-bear2.png
AlexNet_topK_5,1,1263,NaN,car,truck,NaN,truck7-bird2.png
AlexNet_topK_5,1,1264,NaN,dog,truck,NaN,truck7-boat1.png
AlexNet_topK_5,1,1265,NaN,clock,truck,NaN,truck7-chair2.png
AlexNet_topK_5,1,1266,NaN,airplane,truck,NaN,truck7-elephant2.png
AlexNet_topK_5,1,1267,NaN,clock,truck,NaN,truck7-keyboard3.png
AlexNet_topK_5,1,1268,NaN,oven,truck,NaN,truck7-oven2.png
AlexNet_topK_5,1,1269,NaN,oven,truck,NaN,truck7-truck2.png
AlexNet_topK_5,1,1270,NaN,cat,truck,NaN,truck8-bottle2.png
AlexNet_topK_5,1,1271,NaN,car,truck,NaN,truck8-cat2.png
AlexNet_topK_5,1,1272,NaN,cat,truck,NaN,truck8-dog3.png
AlexNet_topK_5,1,1273,NaN,oven,truck,NaN,truck8-elephant1.png
AlexNet_topK_5,1,1274,NaN,cat,truck,NaN,truck8-keyboard2.png
AlexNet_topK_5,1,1275,NaN,bottle,truck,NaN,truck9-airplane2.png
AlexNet_topK_5,1,1276,NaN,cat,truck,NaN,truck9-boat3.png
AlexNet_topK_5,1,1277,NaN,cat,truck,NaN,truck9-bottle2.png
AlexNet_topK_5,1,1278,NaN,cat,truck,NaN,truck9-chair3.png
AlexNet_topK_5,1,1279,NaN,cat,truck,NaN,truck9-elephant1.png
AlexNet_topK_5,1,1280,NaN,cat,truck,NaN,truck9-truck3.png
