subj,session,trial,rt,object_response,category,condition,imagename
AlexNet_topK_50_Revert,1,1,NaN,bear,airplane,NaN,airplane1-bicycle2.png
AlexNet_topK_50_Revert,1,2,NaN,bear,airplane,NaN,airplane1-chair2.png
AlexNet_topK_50_Revert,1,3,NaN,bear,airplane,NaN,airplane1-clock1.png
AlexNet_topK_50_Revert,1,4,NaN,bear,airplane,NaN,airplane1-elephant1.png
AlexNet_topK_50_Revert,1,5,NaN,bear,airplane,NaN,airplane10-airplane1.png
AlexNet_topK_50_Revert,1,6,NaN,bear,airplane,NaN,airplane10-bear3.png
AlexNet_topK_50_Revert,1,7,NaN,cat,airplane,NaN,airplane10-boat3.png
AlexNet_topK_50_Revert,1,8,NaN,cat,airplane,NaN,airplane10-car3.png
AlexNet_topK_50_Revert,1,9,NaN,bear,airplane,NaN,airplane10-cat2.png
AlexNet_topK_50_Revert,1,10,NaN,elephant,airplane,NaN,airplane10-dog3.png
AlexNet_topK_50_Revert,1,11,NaN,bear,airplane,NaN,airplane10-elephant1.png
AlexNet_topK_50_Revert,1,12,NaN,bear,airplane,NaN,airplane10-knife3.png
AlexNet_topK_50_Revert,1,13,NaN,bear,airplane,NaN,airplane10-oven2.png
AlexNet_topK_50_Revert,1,14,NaN,bear,airplane,NaN,airplane10-truck1.png
AlexNet_topK_50_Revert,1,15,NaN,bear,airplane,NaN,airplane2-bear1.png
AlexNet_topK_50_Revert,1,16,NaN,cat,airplane,NaN,airplane2-bicycle1.png
AlexNet_topK_50_Revert,1,17,NaN,bear,airplane,NaN,airplane2-bird3.png
AlexNet_topK_50_Revert,1,18,NaN,bear,airplane,NaN,airplane2-bottle1.png
AlexNet_topK_50_Revert,1,19,NaN,bear,airplane,NaN,airplane2-cat1.png
AlexNet_topK_50_Revert,1,20,NaN,bear,airplane,NaN,airplane2-dog1.png
AlexNet_topK_50_Revert,1,21,NaN,bear,airplane,NaN,airplane3-airplane2.png
AlexNet_topK_50_Revert,1,22,NaN,cat,airplane,NaN,airplane3-car1.png
AlexNet_topK_50_Revert,1,23,NaN,bear,airplane,NaN,airplane3-cat1.png
AlexNet_topK_50_Revert,1,24,NaN,bear,airplane,NaN,airplane3-chair3.png
AlexNet_topK_50_Revert,1,25,NaN,bear,airplane,NaN,airplane3-clock1.png
AlexNet_topK_50_Revert,1,26,NaN,bear,airplane,NaN,airplane3-dog1.png
AlexNet_topK_50_Revert,1,27,NaN,bear,airplane,NaN,airplane3-elephant1.png
AlexNet_topK_50_Revert,1,28,NaN,bear,airplane,NaN,airplane3-keyboard2.png
AlexNet_topK_50_Revert,1,29,NaN,cat,airplane,NaN,airplane3-oven1.png
AlexNet_topK_50_Revert,1,30,NaN,bear,airplane,NaN,airplane4-airplane1.png
AlexNet_topK_50_Revert,1,31,NaN,bear,airplane,NaN,airplane4-bear3.png
AlexNet_topK_50_Revert,1,32,NaN,bear,airplane,NaN,airplane4-bicycle2.png
AlexNet_topK_50_Revert,1,33,NaN,bear,airplane,NaN,airplane4-bird3.png
AlexNet_topK_50_Revert,1,34,NaN,cat,airplane,NaN,airplane4-boat3.png
AlexNet_topK_50_Revert,1,35,NaN,bear,airplane,NaN,airplane4-bottle1.png
AlexNet_topK_50_Revert,1,36,NaN,cat,airplane,NaN,airplane4-car1.png
AlexNet_topK_50_Revert,1,37,NaN,bear,airplane,NaN,airplane4-cat3.png
AlexNet_topK_50_Revert,1,38,NaN,bear,airplane,NaN,airplane4-dog2.png
AlexNet_topK_50_Revert,1,39,NaN,bear,airplane,NaN,airplane4-elephant1.png
AlexNet_topK_50_Revert,1,40,NaN,elephant,airplane,NaN,airplane4-keyboard3.png
AlexNet_topK_50_Revert,1,41,NaN,bear,airplane,NaN,airplane4-knife1.png
AlexNet_topK_50_Revert,1,42,NaN,bear,airplane,NaN,airplane4-truck2.png
AlexNet_topK_50_Revert,1,43,NaN,bear,airplane,NaN,airplane5-bear2.png
AlexNet_topK_50_Revert,1,44,NaN,cat,airplane,NaN,airplane5-bicycle1.png
AlexNet_topK_50_Revert,1,45,NaN,bear,airplane,NaN,airplane5-bird2.png
AlexNet_topK_50_Revert,1,46,NaN,cat,airplane,NaN,airplane5-boat3.png
AlexNet_topK_50_Revert,1,47,NaN,cat,airplane,NaN,airplane5-bottle3.png
AlexNet_topK_50_Revert,1,48,NaN,bear,airplane,NaN,airplane5-chair3.png
AlexNet_topK_50_Revert,1,49,NaN,bear,airplane,NaN,airplane5-dog3.png
AlexNet_topK_50_Revert,1,50,NaN,bear,airplane,NaN,airplane5-knife1.png
AlexNet_topK_50_Revert,1,51,NaN,bear,airplane,NaN,airplane5-oven3.png
AlexNet_topK_50_Revert,1,52,NaN,bear,airplane,NaN,airplane6-bear3.png
AlexNet_topK_50_Revert,1,53,NaN,cat,airplane,NaN,airplane6-bottle2.png
AlexNet_topK_50_Revert,1,54,NaN,cat,airplane,NaN,airplane6-chair3.png
AlexNet_topK_50_Revert,1,55,NaN,elephant,airplane,NaN,airplane6-keyboard3.png
AlexNet_topK_50_Revert,1,56,NaN,bear,airplane,NaN,airplane6-knife1.png
AlexNet_topK_50_Revert,1,57,NaN,cat,airplane,NaN,airplane7-airplane3.png
AlexNet_topK_50_Revert,1,58,NaN,bear,airplane,NaN,airplane7-bird3.png
AlexNet_topK_50_Revert,1,59,NaN,bear,airplane,NaN,airplane7-boat2.png
AlexNet_topK_50_Revert,1,60,NaN,cat,airplane,NaN,airplane7-bottle3.png
AlexNet_topK_50_Revert,1,61,NaN,cat,airplane,NaN,airplane7-car1.png
AlexNet_topK_50_Revert,1,62,NaN,elephant,airplane,NaN,airplane7-cat3.png
AlexNet_topK_50_Revert,1,63,NaN,bear,airplane,NaN,airplane7-clock3.png
AlexNet_topK_50_Revert,1,64,NaN,bear,airplane,NaN,airplane7-keyboard1.png
AlexNet_topK_50_Revert,1,65,NaN,bear,airplane,NaN,airplane7-truck1.png
AlexNet_topK_50_Revert,1,66,NaN,cat,airplane,NaN,airplane8-bicycle3.png
AlexNet_topK_50_Revert,1,67,NaN,bear,airplane,NaN,airplane8-bird1.png
AlexNet_topK_50_Revert,1,68,NaN,elephant,airplane,NaN,airplane8-chair1.png
AlexNet_topK_50_Revert,1,69,NaN,bear,airplane,NaN,airplane8-clock2.png
AlexNet_topK_50_Revert,1,70,NaN,cat,airplane,NaN,airplane8-elephant3.png
AlexNet_topK_50_Revert,1,71,NaN,bear,airplane,NaN,airplane8-oven2.png
AlexNet_topK_50_Revert,1,72,NaN,bear,airplane,NaN,airplane8-truck3.png
AlexNet_topK_50_Revert,1,73,NaN,cat,airplane,NaN,airplane9-airplane2.png
AlexNet_topK_50_Revert,1,74,NaN,cat,airplane,NaN,airplane9-boat1.png
AlexNet_topK_50_Revert,1,75,NaN,elephant,airplane,NaN,airplane9-car2.png
AlexNet_topK_50_Revert,1,76,NaN,bear,airplane,NaN,airplane9-clock1.png
AlexNet_topK_50_Revert,1,77,NaN,bear,airplane,NaN,airplane9-keyboard2.png
AlexNet_topK_50_Revert,1,78,NaN,bear,airplane,NaN,airplane9-knife3.png
AlexNet_topK_50_Revert,1,79,NaN,bear,airplane,NaN,airplane9-oven2.png
AlexNet_topK_50_Revert,1,80,NaN,cat,airplane,NaN,airplane9-truck1.png
AlexNet_topK_50_Revert,1,81,NaN,bear,bear,NaN,bear1-airplane3.png
AlexNet_topK_50_Revert,1,82,NaN,bear,bear,NaN,bear1-bear3.png
AlexNet_topK_50_Revert,1,83,NaN,cat,bear,NaN,bear1-bicycle3.png
AlexNet_topK_50_Revert,1,84,NaN,bear,bear,NaN,bear1-bird2.png
AlexNet_topK_50_Revert,1,85,NaN,elephant,bear,NaN,bear1-chair2.png
AlexNet_topK_50_Revert,1,86,NaN,bear,bear,NaN,bear1-clock2.png
AlexNet_topK_50_Revert,1,87,NaN,elephant,bear,NaN,bear1-elephant1.png
AlexNet_topK_50_Revert,1,88,NaN,bear,bear,NaN,bear10-bear2.png
AlexNet_topK_50_Revert,1,89,NaN,bear,bear,NaN,bear10-bottle1.png
AlexNet_topK_50_Revert,1,90,NaN,cat,bear,NaN,bear10-car2.png
AlexNet_topK_50_Revert,1,91,NaN,bear,bear,NaN,bear10-cat2.png
AlexNet_topK_50_Revert,1,92,NaN,bear,bear,NaN,bear10-chair2.png
AlexNet_topK_50_Revert,1,93,NaN,bear,bear,NaN,bear10-clock1.png
AlexNet_topK_50_Revert,1,94,NaN,bear,bear,NaN,bear10-elephant1.png
AlexNet_topK_50_Revert,1,95,NaN,elephant,bear,NaN,bear10-keyboard3.png
AlexNet_topK_50_Revert,1,96,NaN,bear,bear,NaN,bear10-knife2.png
AlexNet_topK_50_Revert,1,97,NaN,elephant,bear,NaN,bear10-oven1.png
AlexNet_topK_50_Revert,1,98,NaN,cat,bear,NaN,bear10-truck1.png
AlexNet_topK_50_Revert,1,99,NaN,cat,bear,NaN,bear2-airplane1.png
AlexNet_topK_50_Revert,1,100,NaN,bear,bear,NaN,bear2-bird3.png
AlexNet_topK_50_Revert,1,101,NaN,elephant,bear,NaN,bear2-car2.png
AlexNet_topK_50_Revert,1,102,NaN,bear,bear,NaN,bear2-cat2.png
AlexNet_topK_50_Revert,1,103,NaN,bear,bear,NaN,bear2-dog1.png
AlexNet_topK_50_Revert,1,104,NaN,bear,bear,NaN,bear2-elephant1.png
AlexNet_topK_50_Revert,1,105,NaN,bear,bear,NaN,bear2-keyboard2.png
AlexNet_topK_50_Revert,1,106,NaN,bear,bear,NaN,bear2-knife2.png
AlexNet_topK_50_Revert,1,107,NaN,bear,bear,NaN,bear2-oven1.png
AlexNet_topK_50_Revert,1,108,NaN,bear,bear,NaN,bear3-airplane1.png
AlexNet_topK_50_Revert,1,109,NaN,cat,bear,NaN,bear3-bicycle2.png
AlexNet_topK_50_Revert,1,110,NaN,cat,bear,NaN,bear3-bird3.png
AlexNet_topK_50_Revert,1,111,NaN,elephant,bear,NaN,bear3-car2.png
AlexNet_topK_50_Revert,1,112,NaN,bear,bear,NaN,bear3-cat1.png
AlexNet_topK_50_Revert,1,113,NaN,chair,bear,NaN,bear3-chair2.png
AlexNet_topK_50_Revert,1,114,NaN,bear,bear,NaN,bear3-dog3.png
AlexNet_topK_50_Revert,1,115,NaN,bear,bear,NaN,bear3-keyboard2.png
AlexNet_topK_50_Revert,1,116,NaN,cat,bear,NaN,bear3-truck3.png
AlexNet_topK_50_Revert,1,117,NaN,bear,bear,NaN,bear4-boat2.png
AlexNet_topK_50_Revert,1,118,NaN,cat,bear,NaN,bear4-car3.png
AlexNet_topK_50_Revert,1,119,NaN,bear,bear,NaN,bear4-cat3.png
AlexNet_topK_50_Revert,1,120,NaN,bear,bear,NaN,bear4-clock3.png
AlexNet_topK_50_Revert,1,121,NaN,bear,bear,NaN,bear4-elephant2.png
AlexNet_topK_50_Revert,1,122,NaN,elephant,bear,NaN,bear4-keyboard3.png
AlexNet_topK_50_Revert,1,123,NaN,bear,bear,NaN,bear4-knife1.png
AlexNet_topK_50_Revert,1,124,NaN,bear,bear,NaN,bear4-oven2.png
AlexNet_topK_50_Revert,1,125,NaN,bear,bear,NaN,bear4-truck3.png
AlexNet_topK_50_Revert,1,126,NaN,bear,bear,NaN,bear5-airplane3.png
AlexNet_topK_50_Revert,1,127,NaN,cat,bear,NaN,bear5-bicycle3.png
AlexNet_topK_50_Revert,1,128,NaN,bear,bear,NaN,bear5-bird1.png
AlexNet_topK_50_Revert,1,129,NaN,elephant,bear,NaN,bear5-boat2.png
AlexNet_topK_50_Revert,1,130,NaN,cat,bear,NaN,bear5-bottle1.png
AlexNet_topK_50_Revert,1,131,NaN,cat,bear,NaN,bear5-chair1.png
AlexNet_topK_50_Revert,1,132,NaN,bear,bear,NaN,bear5-oven3.png
AlexNet_topK_50_Revert,1,133,NaN,bear,bear,NaN,bear6-bear1.png
AlexNet_topK_50_Revert,1,134,NaN,bear,bear,NaN,bear6-bird2.png
AlexNet_topK_50_Revert,1,135,NaN,cat,bear,NaN,bear6-boat3.png
AlexNet_topK_50_Revert,1,136,NaN,cat,bear,NaN,bear6-bottle3.png
AlexNet_topK_50_Revert,1,137,NaN,chair,bear,NaN,bear6-car2.png
AlexNet_topK_50_Revert,1,138,NaN,bear,bear,NaN,bear6-cat3.png
AlexNet_topK_50_Revert,1,139,NaN,cat,bear,NaN,bear6-chair1.png
AlexNet_topK_50_Revert,1,140,NaN,cat,bear,NaN,bear6-clock1.png
AlexNet_topK_50_Revert,1,141,NaN,bear,bear,NaN,bear7-bear2.png
AlexNet_topK_50_Revert,1,142,NaN,cat,bear,NaN,bear7-bicycle2.png
AlexNet_topK_50_Revert,1,143,NaN,cat,bear,NaN,bear7-clock1.png
AlexNet_topK_50_Revert,1,144,NaN,bear,bear,NaN,bear7-dog3.png
AlexNet_topK_50_Revert,1,145,NaN,bear,bear,NaN,bear7-oven3.png
AlexNet_topK_50_Revert,1,146,NaN,chair,bear,NaN,bear7-truck1.png
AlexNet_topK_50_Revert,1,147,NaN,bear,bear,NaN,bear8-airplane1.png
AlexNet_topK_50_Revert,1,148,NaN,bear,bear,NaN,bear8-bear1.png
AlexNet_topK_50_Revert,1,149,NaN,cat,bear,NaN,bear8-bicycle3.png
AlexNet_topK_50_Revert,1,150,NaN,cat,bear,NaN,bear8-boat2.png
AlexNet_topK_50_Revert,1,151,NaN,bear,bear,NaN,bear8-bottle1.png
AlexNet_topK_50_Revert,1,152,NaN,cat,bear,NaN,bear8-dog1.png
AlexNet_topK_50_Revert,1,153,NaN,bear,bear,NaN,bear8-elephant2.png
AlexNet_topK_50_Revert,1,154,NaN,bear,bear,NaN,bear8-knife3.png
AlexNet_topK_50_Revert,1,155,NaN,bear,bear,NaN,bear8-truck3.png
AlexNet_topK_50_Revert,1,156,NaN,elephant,bear,NaN,bear9-boat2.png
AlexNet_topK_50_Revert,1,157,NaN,bear,bear,NaN,bear9-bottle2.png
AlexNet_topK_50_Revert,1,158,NaN,bear,bear,NaN,bear9-dog1.png
AlexNet_topK_50_Revert,1,159,NaN,bear,bear,NaN,bear9-keyboard3.png
AlexNet_topK_50_Revert,1,160,NaN,bear,bear,NaN,bear9-knife2.png
AlexNet_topK_50_Revert,1,161,NaN,cat,bicycle,NaN,bicycle1-airplane2.png
AlexNet_topK_50_Revert,1,162,NaN,bear,bicycle,NaN,bicycle1-bear1.png
AlexNet_topK_50_Revert,1,163,NaN,cat,bicycle,NaN,bicycle1-bicycle3.png
AlexNet_topK_50_Revert,1,164,NaN,bear,bicycle,NaN,bicycle1-bird1.png
AlexNet_topK_50_Revert,1,165,NaN,cat,bicycle,NaN,bicycle1-boat3.png
AlexNet_topK_50_Revert,1,166,NaN,cat,bicycle,NaN,bicycle1-bottle3.png
AlexNet_topK_50_Revert,1,167,NaN,cat,bicycle,NaN,bicycle1-chair1.png
AlexNet_topK_50_Revert,1,168,NaN,bear,bicycle,NaN,bicycle1-clock3.png
AlexNet_topK_50_Revert,1,169,NaN,bear,bicycle,NaN,bicycle1-dog3.png
AlexNet_topK_50_Revert,1,170,NaN,cat,bicycle,NaN,bicycle1-elephant2.png
AlexNet_topK_50_Revert,1,171,NaN,bear,bicycle,NaN,bicycle1-knife3.png
AlexNet_topK_50_Revert,1,172,NaN,bear,bicycle,NaN,bicycle1-oven1.png
AlexNet_topK_50_Revert,1,173,NaN,cat,bicycle,NaN,bicycle1-truck1.png
AlexNet_topK_50_Revert,1,174,NaN,cat,bicycle,NaN,bicycle10-airplane2.png
AlexNet_topK_50_Revert,1,175,NaN,cat,bicycle,NaN,bicycle10-boat3.png
AlexNet_topK_50_Revert,1,176,NaN,bear,bicycle,NaN,bicycle10-clock2.png
AlexNet_topK_50_Revert,1,177,NaN,bear,bicycle,NaN,bicycle10-dog3.png
AlexNet_topK_50_Revert,1,178,NaN,elephant,bicycle,NaN,bicycle10-elephant2.png
AlexNet_topK_50_Revert,1,179,NaN,bear,bicycle,NaN,bicycle2-bicycle1.png
AlexNet_topK_50_Revert,1,180,NaN,bear,bicycle,NaN,bicycle2-bird3.png
AlexNet_topK_50_Revert,1,181,NaN,bear,bicycle,NaN,bicycle2-bottle1.png
AlexNet_topK_50_Revert,1,182,NaN,cat,bicycle,NaN,bicycle2-car2.png
AlexNet_topK_50_Revert,1,183,NaN,bear,bicycle,NaN,bicycle2-dog1.png
AlexNet_topK_50_Revert,1,184,NaN,bear,bicycle,NaN,bicycle2-keyboard2.png
AlexNet_topK_50_Revert,1,185,NaN,bear,bicycle,NaN,bicycle2-knife2.png
AlexNet_topK_50_Revert,1,186,NaN,bear,bicycle,NaN,bicycle3-bird1.png
AlexNet_topK_50_Revert,1,187,NaN,bear,bicycle,NaN,bicycle3-elephant2.png
AlexNet_topK_50_Revert,1,188,NaN,bear,bicycle,NaN,bicycle3-keyboard1.png
AlexNet_topK_50_Revert,1,189,NaN,bear,bicycle,NaN,bicycle3-oven3.png
AlexNet_topK_50_Revert,1,190,NaN,cat,bicycle,NaN,bicycle3-truck3.png
AlexNet_topK_50_Revert,1,191,NaN,elephant,bicycle,NaN,bicycle4-airplane1.png
AlexNet_topK_50_Revert,1,192,NaN,oven,bicycle,NaN,bicycle4-bicycle3.png
AlexNet_topK_50_Revert,1,193,NaN,cat,bicycle,NaN,bicycle4-boat1.png
AlexNet_topK_50_Revert,1,194,NaN,bear,bicycle,NaN,bicycle4-bottle1.png
AlexNet_topK_50_Revert,1,195,NaN,cat,bicycle,NaN,bicycle4-car2.png
AlexNet_topK_50_Revert,1,196,NaN,bear,bicycle,NaN,bicycle4-cat1.png
AlexNet_topK_50_Revert,1,197,NaN,elephant,bicycle,NaN,bicycle4-chair2.png
AlexNet_topK_50_Revert,1,198,NaN,bear,bicycle,NaN,bicycle4-clock3.png
AlexNet_topK_50_Revert,1,199,NaN,bear,bicycle,NaN,bicycle4-keyboard3.png
AlexNet_topK_50_Revert,1,200,NaN,bear,bicycle,NaN,bicycle4-knife3.png
AlexNet_topK_50_Revert,1,201,NaN,bear,bicycle,NaN,bicycle4-oven3.png
AlexNet_topK_50_Revert,1,202,NaN,bear,bicycle,NaN,bicycle4-truck3.png
AlexNet_topK_50_Revert,1,203,NaN,bear,bicycle,NaN,bicycle5-bear1.png
AlexNet_topK_50_Revert,1,204,NaN,cat,bicycle,NaN,bicycle5-bottle3.png
AlexNet_topK_50_Revert,1,205,NaN,cat,bicycle,NaN,bicycle5-car3.png
AlexNet_topK_50_Revert,1,206,NaN,bear,bicycle,NaN,bicycle5-cat1.png
AlexNet_topK_50_Revert,1,207,NaN,bear,bicycle,NaN,bicycle5-chair2.png
AlexNet_topK_50_Revert,1,208,NaN,bear,bicycle,NaN,bicycle5-dog2.png
AlexNet_topK_50_Revert,1,209,NaN,cat,bicycle,NaN,bicycle5-elephant1.png
AlexNet_topK_50_Revert,1,210,NaN,bear,bicycle,NaN,bicycle5-keyboard3.png
AlexNet_topK_50_Revert,1,211,NaN,bear,bicycle,NaN,bicycle5-oven3.png
AlexNet_topK_50_Revert,1,212,NaN,cat,bicycle,NaN,bicycle6-airplane2.png
AlexNet_topK_50_Revert,1,213,NaN,cat,bicycle,NaN,bicycle6-bicycle3.png
AlexNet_topK_50_Revert,1,214,NaN,cat,bicycle,NaN,bicycle6-boat2.png
AlexNet_topK_50_Revert,1,215,NaN,cat,bicycle,NaN,bicycle6-car2.png
AlexNet_topK_50_Revert,1,216,NaN,bear,bicycle,NaN,bicycle6-cat1.png
AlexNet_topK_50_Revert,1,217,NaN,bear,bicycle,NaN,bicycle6-dog2.png
AlexNet_topK_50_Revert,1,218,NaN,cat,bicycle,NaN,bicycle7-bear2.png
AlexNet_topK_50_Revert,1,219,NaN,bear,bicycle,NaN,bicycle7-bicycle2.png
AlexNet_topK_50_Revert,1,220,NaN,bear,bicycle,NaN,bicycle7-cat1.png
AlexNet_topK_50_Revert,1,221,NaN,cat,bicycle,NaN,bicycle7-clock3.png
AlexNet_topK_50_Revert,1,222,NaN,bear,bicycle,NaN,bicycle7-elephant2.png
AlexNet_topK_50_Revert,1,223,NaN,bear,bicycle,NaN,bicycle7-knife2.png
AlexNet_topK_50_Revert,1,224,NaN,cat,bicycle,NaN,bicycle7-oven1.png
AlexNet_topK_50_Revert,1,225,NaN,cat,bicycle,NaN,bicycle7-truck3.png
AlexNet_topK_50_Revert,1,226,NaN,cat,bicycle,NaN,bicycle8-bear2.png
AlexNet_topK_50_Revert,1,227,NaN,bear,bicycle,NaN,bicycle8-bird2.png
AlexNet_topK_50_Revert,1,228,NaN,cat,bicycle,NaN,bicycle8-boat1.png
AlexNet_topK_50_Revert,1,229,NaN,bear,bicycle,NaN,bicycle8-chair2.png
AlexNet_topK_50_Revert,1,230,NaN,cat,bicycle,NaN,bicycle8-clock3.png
AlexNet_topK_50_Revert,1,231,NaN,cat,bicycle,NaN,bicycle8-truck1.png
AlexNet_topK_50_Revert,1,232,NaN,cat,bicycle,NaN,bicycle9-airplane2.png
AlexNet_topK_50_Revert,1,233,NaN,bear,bicycle,NaN,bicycle9-bear1.png
AlexNet_topK_50_Revert,1,234,NaN,bear,bicycle,NaN,bicycle9-bird3.png
AlexNet_topK_50_Revert,1,235,NaN,cat,bicycle,NaN,bicycle9-bottle1.png
AlexNet_topK_50_Revert,1,236,NaN,cat,bicycle,NaN,bicycle9-car1.png
AlexNet_topK_50_Revert,1,237,NaN,bear,bicycle,NaN,bicycle9-cat3.png
AlexNet_topK_50_Revert,1,238,NaN,cat,bicycle,NaN,bicycle9-chair1.png
AlexNet_topK_50_Revert,1,239,NaN,bear,bicycle,NaN,bicycle9-keyboard3.png
AlexNet_topK_50_Revert,1,240,NaN,bear,bicycle,NaN,bicycle9-knife3.png
AlexNet_topK_50_Revert,1,241,NaN,cat,bird,NaN,bird1-airplane2.png
AlexNet_topK_50_Revert,1,242,NaN,bear,bird,NaN,bird1-bear1.png
AlexNet_topK_50_Revert,1,243,NaN,bear,bird,NaN,bird1-bicycle2.png
AlexNet_topK_50_Revert,1,244,NaN,cat,bird,NaN,bird1-boat1.png
AlexNet_topK_50_Revert,1,245,NaN,bear,bird,NaN,bird1-chair2.png
AlexNet_topK_50_Revert,1,246,NaN,cat,bird,NaN,bird1-clock3.png
AlexNet_topK_50_Revert,1,247,NaN,elephant,bird,NaN,bird1-elephant2.png
AlexNet_topK_50_Revert,1,248,NaN,bear,bird,NaN,bird1-keyboard3.png
AlexNet_topK_50_Revert,1,249,NaN,bear,bird,NaN,bird1-knife3.png
AlexNet_topK_50_Revert,1,250,NaN,cat,bird,NaN,bird1-oven1.png
AlexNet_topK_50_Revert,1,251,NaN,chair,bird,NaN,bird1-truck1.png
AlexNet_topK_50_Revert,1,252,NaN,bear,bird,NaN,bird10-bear2.png
AlexNet_topK_50_Revert,1,253,NaN,cat,bird,NaN,bird10-bicycle1.png
AlexNet_topK_50_Revert,1,254,NaN,bear,bird,NaN,bird10-bird2.png
AlexNet_topK_50_Revert,1,255,NaN,bear,bird,NaN,bird10-cat1.png
AlexNet_topK_50_Revert,1,256,NaN,cat,bird,NaN,bird10-chair1.png
AlexNet_topK_50_Revert,1,257,NaN,cat,bird,NaN,bird10-clock1.png
AlexNet_topK_50_Revert,1,258,NaN,elephant,bird,NaN,bird10-elephant2.png
AlexNet_topK_50_Revert,1,259,NaN,bear,bird,NaN,bird2-airplane3.png
AlexNet_topK_50_Revert,1,260,NaN,bear,bird,NaN,bird2-bird2.png
AlexNet_topK_50_Revert,1,261,NaN,bear,bird,NaN,bird2-car3.png
AlexNet_topK_50_Revert,1,262,NaN,cat,bird,NaN,bird2-clock3.png
AlexNet_topK_50_Revert,1,263,NaN,bear,bird,NaN,bird2-dog2.png
AlexNet_topK_50_Revert,1,264,NaN,bear,bird,NaN,bird2-knife1.png
AlexNet_topK_50_Revert,1,265,NaN,bear,bird,NaN,bird3-bear3.png
AlexNet_topK_50_Revert,1,266,NaN,bear,bird,NaN,bird3-bird2.png
AlexNet_topK_50_Revert,1,267,NaN,cat,bird,NaN,bird3-boat3.png
AlexNet_topK_50_Revert,1,268,NaN,bear,bird,NaN,bird3-bottle2.png
AlexNet_topK_50_Revert,1,269,NaN,bear,bird,NaN,bird3-cat1.png
AlexNet_topK_50_Revert,1,270,NaN,bear,bird,NaN,bird3-dog1.png
AlexNet_topK_50_Revert,1,271,NaN,bear,bird,NaN,bird3-knife3.png
AlexNet_topK_50_Revert,1,272,NaN,cat,bird,NaN,bird3-oven1.png
AlexNet_topK_50_Revert,1,273,NaN,bear,bird,NaN,bird3-truck3.png
AlexNet_topK_50_Revert,1,274,NaN,cat,bird,NaN,bird4-airplane1.png
AlexNet_topK_50_Revert,1,275,NaN,bear,bird,NaN,bird4-bicycle2.png
AlexNet_topK_50_Revert,1,276,NaN,bear,bird,NaN,bird4-cat3.png
AlexNet_topK_50_Revert,1,277,NaN,cat,bird,NaN,bird4-clock1.png
AlexNet_topK_50_Revert,1,278,NaN,bear,bird,NaN,bird4-dog3.png
AlexNet_topK_50_Revert,1,279,NaN,bear,bird,NaN,bird5-airplane3.png
AlexNet_topK_50_Revert,1,280,NaN,elephant,bird,NaN,bird5-bear3.png
AlexNet_topK_50_Revert,1,281,NaN,cat,bird,NaN,bird5-bicycle1.png
AlexNet_topK_50_Revert,1,282,NaN,bear,bird,NaN,bird5-bird1.png
AlexNet_topK_50_Revert,1,283,NaN,cat,bird,NaN,bird5-car2.png
AlexNet_topK_50_Revert,1,284,NaN,bear,bird,NaN,bird5-cat2.png
AlexNet_topK_50_Revert,1,285,NaN,cat,bird,NaN,bird5-chair1.png
AlexNet_topK_50_Revert,1,286,NaN,bear,bird,NaN,bird5-dog2.png
AlexNet_topK_50_Revert,1,287,NaN,bear,bird,NaN,bird5-keyboard2.png
AlexNet_topK_50_Revert,1,288,NaN,bear,bird,NaN,bird5-oven3.png
AlexNet_topK_50_Revert,1,289,NaN,bear,bird,NaN,bird5-truck2.png
AlexNet_topK_50_Revert,1,290,NaN,cat,bird,NaN,bird6-airplane2.png
AlexNet_topK_50_Revert,1,291,NaN,bear,bird,NaN,bird6-boat2.png
AlexNet_topK_50_Revert,1,292,NaN,cat,bird,NaN,bird6-bottle3.png
AlexNet_topK_50_Revert,1,293,NaN,bear,bird,NaN,bird6-car3.png
AlexNet_topK_50_Revert,1,294,NaN,elephant,bird,NaN,bird6-elephant2.png
AlexNet_topK_50_Revert,1,295,NaN,cat,bird,NaN,bird6-oven1.png
AlexNet_topK_50_Revert,1,296,NaN,bear,bird,NaN,bird6-truck2.png
AlexNet_topK_50_Revert,1,297,NaN,bear,bird,NaN,bird7-bird2.png
AlexNet_topK_50_Revert,1,298,NaN,cat,bird,NaN,bird7-boat1.png
AlexNet_topK_50_Revert,1,299,NaN,cat,bird,NaN,bird7-bottle1.png
AlexNet_topK_50_Revert,1,300,NaN,elephant,bird,NaN,bird7-car2.png
AlexNet_topK_50_Revert,1,301,NaN,bear,bird,NaN,bird7-cat3.png
AlexNet_topK_50_Revert,1,302,NaN,elephant,bird,NaN,bird7-keyboard3.png
AlexNet_topK_50_Revert,1,303,NaN,bear,bird,NaN,bird7-knife2.png
AlexNet_topK_50_Revert,1,304,NaN,bear,bird,NaN,bird7-oven3.png
AlexNet_topK_50_Revert,1,305,NaN,bear,bird,NaN,bird7-truck2.png
AlexNet_topK_50_Revert,1,306,NaN,cat,bird,NaN,bird8-boat3.png
AlexNet_topK_50_Revert,1,307,NaN,cat,bird,NaN,bird8-bottle1.png
AlexNet_topK_50_Revert,1,308,NaN,cat,bird,NaN,bird8-car2.png
AlexNet_topK_50_Revert,1,309,NaN,cat,bird,NaN,bird8-chair1.png
AlexNet_topK_50_Revert,1,310,NaN,cat,bird,NaN,bird8-clock1.png
AlexNet_topK_50_Revert,1,311,NaN,bear,bird,NaN,bird8-elephant1.png
AlexNet_topK_50_Revert,1,312,NaN,bear,bird,NaN,bird8-keyboard2.png
AlexNet_topK_50_Revert,1,313,NaN,bear,bird,NaN,bird8-knife2.png
AlexNet_topK_50_Revert,1,314,NaN,bear,bird,NaN,bird9-bear3.png
AlexNet_topK_50_Revert,1,315,NaN,cat,bird,NaN,bird9-bicycle3.png
AlexNet_topK_50_Revert,1,316,NaN,cat,bird,NaN,bird9-bottle3.png
AlexNet_topK_50_Revert,1,317,NaN,cat,bird,NaN,bird9-chair1.png
AlexNet_topK_50_Revert,1,318,NaN,bear,bird,NaN,bird9-dog2.png
AlexNet_topK_50_Revert,1,319,NaN,bear,bird,NaN,bird9-elephant2.png
AlexNet_topK_50_Revert,1,320,NaN,bear,bird,NaN,bird9-keyboard1.png
AlexNet_topK_50_Revert,1,321,NaN,bear,boat,NaN,boat1-bear1.png
AlexNet_topK_50_Revert,1,322,NaN,cat,boat,NaN,boat1-bicycle2.png
AlexNet_topK_50_Revert,1,323,NaN,bear,boat,NaN,boat1-bird3.png
AlexNet_topK_50_Revert,1,324,NaN,chair,boat,NaN,boat1-car2.png
AlexNet_topK_50_Revert,1,325,NaN,cat,boat,NaN,boat1-chair3.png
AlexNet_topK_50_Revert,1,326,NaN,bear,boat,NaN,boat1-elephant3.png
AlexNet_topK_50_Revert,1,327,NaN,elephant,boat,NaN,boat1-keyboard3.png
AlexNet_topK_50_Revert,1,328,NaN,cat,boat,NaN,boat1-oven1.png
AlexNet_topK_50_Revert,1,329,NaN,bear,boat,NaN,boat1-truck3.png
AlexNet_topK_50_Revert,1,330,NaN,bear,boat,NaN,boat10-bear3.png
AlexNet_topK_50_Revert,1,331,NaN,cat,boat,NaN,boat10-boat3.png
AlexNet_topK_50_Revert,1,332,NaN,bear,boat,NaN,boat10-cat1.png
AlexNet_topK_50_Revert,1,333,NaN,bear,boat,NaN,boat10-oven1.png
AlexNet_topK_50_Revert,1,334,NaN,bear,boat,NaN,boat10-truck1.png
AlexNet_topK_50_Revert,1,335,NaN,cat,boat,NaN,boat2-airplane1.png
AlexNet_topK_50_Revert,1,336,NaN,bear,boat,NaN,boat2-bear3.png
AlexNet_topK_50_Revert,1,337,NaN,elephant,boat,NaN,boat2-bird1.png
AlexNet_topK_50_Revert,1,338,NaN,cat,boat,NaN,boat2-bottle2.png
AlexNet_topK_50_Revert,1,339,NaN,bear,boat,NaN,boat2-keyboard1.png
AlexNet_topK_50_Revert,1,340,NaN,bear,boat,NaN,boat2-oven3.png
AlexNet_topK_50_Revert,1,341,NaN,cat,boat,NaN,boat3-airplane2.png
AlexNet_topK_50_Revert,1,342,NaN,cat,boat,NaN,boat3-bicycle2.png
AlexNet_topK_50_Revert,1,343,NaN,bear,boat,NaN,boat3-car3.png
AlexNet_topK_50_Revert,1,344,NaN,bear,boat,NaN,boat3-cat3.png
AlexNet_topK_50_Revert,1,345,NaN,bear,boat,NaN,boat3-chair3.png
AlexNet_topK_50_Revert,1,346,NaN,bear,boat,NaN,boat3-clock3.png
AlexNet_topK_50_Revert,1,347,NaN,bear,boat,NaN,boat3-dog3.png
AlexNet_topK_50_Revert,1,348,NaN,bear,boat,NaN,boat3-keyboard2.png
AlexNet_topK_50_Revert,1,349,NaN,cat,boat,NaN,boat4-bicycle3.png
AlexNet_topK_50_Revert,1,350,NaN,elephant,boat,NaN,boat4-bird1.png
AlexNet_topK_50_Revert,1,351,NaN,cat,boat,NaN,boat4-boat3.png
AlexNet_topK_50_Revert,1,352,NaN,cat,boat,NaN,boat4-bottle2.png
AlexNet_topK_50_Revert,1,353,NaN,cat,boat,NaN,boat4-car3.png
AlexNet_topK_50_Revert,1,354,NaN,bear,boat,NaN,boat4-chair2.png
AlexNet_topK_50_Revert,1,355,NaN,bear,boat,NaN,boat4-dog2.png
AlexNet_topK_50_Revert,1,356,NaN,bear,boat,NaN,boat4-elephant2.png
AlexNet_topK_50_Revert,1,357,NaN,bear,boat,NaN,boat4-knife2.png
AlexNet_topK_50_Revert,1,358,NaN,cat,boat,NaN,boat5-airplane1.png
AlexNet_topK_50_Revert,1,359,NaN,cat,boat,NaN,boat5-bicycle3.png
AlexNet_topK_50_Revert,1,360,NaN,cat,boat,NaN,boat5-boat3.png
AlexNet_topK_50_Revert,1,361,NaN,cat,boat,NaN,boat5-car3.png
AlexNet_topK_50_Revert,1,362,NaN,bear,boat,NaN,boat5-clock3.png
AlexNet_topK_50_Revert,1,363,NaN,bear,boat,NaN,boat5-knife2.png
AlexNet_topK_50_Revert,1,364,NaN,cat,boat,NaN,boat6-airplane2.png
AlexNet_topK_50_Revert,1,365,NaN,bear,boat,NaN,boat6-bear1.png
AlexNet_topK_50_Revert,1,366,NaN,bear,boat,NaN,boat6-bicycle2.png
AlexNet_topK_50_Revert,1,367,NaN,cat,boat,NaN,boat6-bottle2.png
AlexNet_topK_50_Revert,1,368,NaN,cat,boat,NaN,boat6-car1.png
AlexNet_topK_50_Revert,1,369,NaN,bear,boat,NaN,boat6-cat1.png
AlexNet_topK_50_Revert,1,370,NaN,bear,boat,NaN,boat6-clock2.png
AlexNet_topK_50_Revert,1,371,NaN,bear,boat,NaN,boat6-dog1.png
AlexNet_topK_50_Revert,1,372,NaN,bear,boat,NaN,boat6-elephant2.png
AlexNet_topK_50_Revert,1,373,NaN,bear,boat,NaN,boat6-knife2.png
AlexNet_topK_50_Revert,1,374,NaN,elephant,boat,NaN,boat6-truck3.png
AlexNet_topK_50_Revert,1,375,NaN,elephant,boat,NaN,boat7-boat2.png
AlexNet_topK_50_Revert,1,376,NaN,cat,boat,NaN,boat7-bottle1.png
AlexNet_topK_50_Revert,1,377,NaN,bear,boat,NaN,boat7-cat3.png
AlexNet_topK_50_Revert,1,378,NaN,cat,boat,NaN,boat7-chair1.png
AlexNet_topK_50_Revert,1,379,NaN,bear,boat,NaN,boat7-clock3.png
AlexNet_topK_50_Revert,1,380,NaN,bear,boat,NaN,boat7-elephant3.png
AlexNet_topK_50_Revert,1,381,NaN,elephant,boat,NaN,boat7-keyboard3.png
AlexNet_topK_50_Revert,1,382,NaN,bear,boat,NaN,boat7-oven3.png
AlexNet_topK_50_Revert,1,383,NaN,cat,boat,NaN,boat7-truck2.png
AlexNet_topK_50_Revert,1,384,NaN,bear,boat,NaN,boat8-bird2.png
AlexNet_topK_50_Revert,1,385,NaN,cat,boat,NaN,boat8-bottle1.png
AlexNet_topK_50_Revert,1,386,NaN,bear,boat,NaN,boat8-dog3.png
AlexNet_topK_50_Revert,1,387,NaN,bear,boat,NaN,boat8-elephant1.png
AlexNet_topK_50_Revert,1,388,NaN,cat,boat,NaN,boat8-knife1.png
AlexNet_topK_50_Revert,1,389,NaN,bear,boat,NaN,boat8-oven1.png
AlexNet_topK_50_Revert,1,390,NaN,bear,boat,NaN,boat8-truck2.png
AlexNet_topK_50_Revert,1,391,NaN,cat,boat,NaN,boat9-airplane2.png
AlexNet_topK_50_Revert,1,392,NaN,bear,boat,NaN,boat9-bear3.png
AlexNet_topK_50_Revert,1,393,NaN,bear,boat,NaN,boat9-bird1.png
AlexNet_topK_50_Revert,1,394,NaN,cat,boat,NaN,boat9-boat3.png
AlexNet_topK_50_Revert,1,395,NaN,bear,boat,NaN,boat9-cat3.png
AlexNet_topK_50_Revert,1,396,NaN,bear,boat,NaN,boat9-chair2.png
AlexNet_topK_50_Revert,1,397,NaN,bear,boat,NaN,boat9-clock1.png
AlexNet_topK_50_Revert,1,398,NaN,bear,boat,NaN,boat9-dog2.png
AlexNet_topK_50_Revert,1,399,NaN,bear,boat,NaN,boat9-keyboard2.png
AlexNet_topK_50_Revert,1,400,NaN,bear,boat,NaN,boat9-knife2.png
AlexNet_topK_50_Revert,1,401,NaN,bear,bottle,NaN,bottle1-bear1.png
AlexNet_topK_50_Revert,1,402,NaN,bear,bottle,NaN,bottle1-bird3.png
AlexNet_topK_50_Revert,1,403,NaN,cat,bottle,NaN,bottle1-car1.png
AlexNet_topK_50_Revert,1,404,NaN,bear,bottle,NaN,bottle1-cat3.png
AlexNet_topK_50_Revert,1,405,NaN,bear,bottle,NaN,bottle1-chair2.png
AlexNet_topK_50_Revert,1,406,NaN,bear,bottle,NaN,bottle1-clock1.png
AlexNet_topK_50_Revert,1,407,NaN,bear,bottle,NaN,bottle1-dog2.png
AlexNet_topK_50_Revert,1,408,NaN,elephant,bottle,NaN,bottle1-keyboard3.png
AlexNet_topK_50_Revert,1,409,NaN,bear,bottle,NaN,bottle10-bear2.png
AlexNet_topK_50_Revert,1,410,NaN,cat,bottle,NaN,bottle10-boat3.png
AlexNet_topK_50_Revert,1,411,NaN,cat,bottle,NaN,bottle10-car1.png
AlexNet_topK_50_Revert,1,412,NaN,bear,bottle,NaN,bottle10-clock2.png
AlexNet_topK_50_Revert,1,413,NaN,bear,bottle,NaN,bottle10-dog1.png
AlexNet_topK_50_Revert,1,414,NaN,elephant,bottle,NaN,bottle10-truck3.png
AlexNet_topK_50_Revert,1,415,NaN,cat,bottle,NaN,bottle2-bottle3.png
AlexNet_topK_50_Revert,1,416,NaN,elephant,bottle,NaN,bottle2-car2.png
AlexNet_topK_50_Revert,1,417,NaN,bear,bottle,NaN,bottle2-chair3.png
AlexNet_topK_50_Revert,1,418,NaN,bear,bottle,NaN,bottle2-clock1.png
AlexNet_topK_50_Revert,1,419,NaN,bear,bottle,NaN,bottle2-elephant1.png
AlexNet_topK_50_Revert,1,420,NaN,bear,bottle,NaN,bottle2-knife3.png
AlexNet_topK_50_Revert,1,421,NaN,bear,bottle,NaN,bottle3-airplane2.png
AlexNet_topK_50_Revert,1,422,NaN,bear,bottle,NaN,bottle3-bear2.png
AlexNet_topK_50_Revert,1,423,NaN,bear,bottle,NaN,bottle3-bicycle3.png
AlexNet_topK_50_Revert,1,424,NaN,cat,bottle,NaN,bottle3-bird1.png
AlexNet_topK_50_Revert,1,425,NaN,cat,bottle,NaN,bottle3-boat3.png
AlexNet_topK_50_Revert,1,426,NaN,cat,bottle,NaN,bottle3-bottle3.png
AlexNet_topK_50_Revert,1,427,NaN,bear,bottle,NaN,bottle3-cat3.png
AlexNet_topK_50_Revert,1,428,NaN,bear,bottle,NaN,bottle3-chair3.png
AlexNet_topK_50_Revert,1,429,NaN,bear,bottle,NaN,bottle3-knife3.png
AlexNet_topK_50_Revert,1,430,NaN,cat,bottle,NaN,bottle4-airplane1.png
AlexNet_topK_50_Revert,1,431,NaN,cat,bottle,NaN,bottle4-bicycle1.png
AlexNet_topK_50_Revert,1,432,NaN,bear,bottle,NaN,bottle4-car3.png
AlexNet_topK_50_Revert,1,433,NaN,bear,bottle,NaN,bottle4-dog2.png
AlexNet_topK_50_Revert,1,434,NaN,bear,bottle,NaN,bottle4-oven2.png
AlexNet_topK_50_Revert,1,435,NaN,cat,bottle,NaN,bottle4-truck1.png
AlexNet_topK_50_Revert,1,436,NaN,cat,bottle,NaN,bottle5-airplane1.png
AlexNet_topK_50_Revert,1,437,NaN,bear,bottle,NaN,bottle5-bird3.png
AlexNet_topK_50_Revert,1,438,NaN,cat,bottle,NaN,bottle5-boat1.png
AlexNet_topK_50_Revert,1,439,NaN,bear,bottle,NaN,bottle5-cat1.png
AlexNet_topK_50_Revert,1,440,NaN,cat,bottle,NaN,bottle5-chair1.png
AlexNet_topK_50_Revert,1,441,NaN,bear,bottle,NaN,bottle5-clock3.png
AlexNet_topK_50_Revert,1,442,NaN,bear,bottle,NaN,bottle5-elephant1.png
AlexNet_topK_50_Revert,1,443,NaN,elephant,bottle,NaN,bottle5-keyboard2.png
AlexNet_topK_50_Revert,1,444,NaN,bear,bottle,NaN,bottle5-knife1.png
AlexNet_topK_50_Revert,1,445,NaN,bear,bottle,NaN,bottle5-oven2.png
AlexNet_topK_50_Revert,1,446,NaN,chair,bottle,NaN,bottle5-truck1.png
AlexNet_topK_50_Revert,1,447,NaN,cat,bottle,NaN,bottle6-airplane1.png
AlexNet_topK_50_Revert,1,448,NaN,bear,bottle,NaN,bottle6-bear2.png
AlexNet_topK_50_Revert,1,449,NaN,cat,bottle,NaN,bottle6-bicycle3.png
AlexNet_topK_50_Revert,1,450,NaN,elephant,bottle,NaN,bottle6-bird1.png
AlexNet_topK_50_Revert,1,451,NaN,cat,bottle,NaN,bottle6-boat3.png
AlexNet_topK_50_Revert,1,452,NaN,cat,bottle,NaN,bottle6-bottle3.png
AlexNet_topK_50_Revert,1,453,NaN,bear,bottle,NaN,bottle6-chair2.png
AlexNet_topK_50_Revert,1,454,NaN,bear,bottle,NaN,bottle6-dog3.png
AlexNet_topK_50_Revert,1,455,NaN,bear,bottle,NaN,bottle6-knife3.png
AlexNet_topK_50_Revert,1,456,NaN,bear,bottle,NaN,bottle6-oven3.png
AlexNet_topK_50_Revert,1,457,NaN,bear,bottle,NaN,bottle7-airplane3.png
AlexNet_topK_50_Revert,1,458,NaN,bear,bottle,NaN,bottle7-bear1.png
AlexNet_topK_50_Revert,1,459,NaN,cat,bottle,NaN,bottle7-boat3.png
AlexNet_topK_50_Revert,1,460,NaN,bear,bottle,NaN,bottle7-cat2.png
AlexNet_topK_50_Revert,1,461,NaN,cat,bottle,NaN,bottle7-clock1.png
AlexNet_topK_50_Revert,1,462,NaN,elephant,bottle,NaN,bottle7-elephant2.png
AlexNet_topK_50_Revert,1,463,NaN,elephant,bottle,NaN,bottle7-keyboard2.png
AlexNet_topK_50_Revert,1,464,NaN,bear,bottle,NaN,bottle7-oven2.png
AlexNet_topK_50_Revert,1,465,NaN,bear,bottle,NaN,bottle7-truck2.png
AlexNet_topK_50_Revert,1,466,NaN,bear,bottle,NaN,bottle8-bicycle1.png
AlexNet_topK_50_Revert,1,467,NaN,bear,bottle,NaN,bottle8-bird1.png
AlexNet_topK_50_Revert,1,468,NaN,cat,bottle,NaN,bottle8-bottle3.png
AlexNet_topK_50_Revert,1,469,NaN,bear,bottle,NaN,bottle8-dog2.png
AlexNet_topK_50_Revert,1,470,NaN,bear,bottle,NaN,bottle8-elephant3.png
AlexNet_topK_50_Revert,1,471,NaN,elephant,bottle,NaN,bottle8-keyboard3.png
AlexNet_topK_50_Revert,1,472,NaN,bear,bottle,NaN,bottle8-knife1.png
AlexNet_topK_50_Revert,1,473,NaN,cat,bottle,NaN,bottle9-bicycle1.png
AlexNet_topK_50_Revert,1,474,NaN,bear,bottle,NaN,bottle9-bottle1.png
AlexNet_topK_50_Revert,1,475,NaN,cat,bottle,NaN,bottle9-car3.png
AlexNet_topK_50_Revert,1,476,NaN,bear,bottle,NaN,bottle9-cat2.png
AlexNet_topK_50_Revert,1,477,NaN,bear,bottle,NaN,bottle9-elephant2.png
AlexNet_topK_50_Revert,1,478,NaN,bear,bottle,NaN,bottle9-keyboard1.png
AlexNet_topK_50_Revert,1,479,NaN,bear,bottle,NaN,bottle9-oven2.png
AlexNet_topK_50_Revert,1,480,NaN,bear,bottle,NaN,bottle9-truck1.png
AlexNet_topK_50_Revert,1,481,NaN,bear,car,NaN,car1-airplane1.png
AlexNet_topK_50_Revert,1,482,NaN,bear,car,NaN,car1-car2.png
AlexNet_topK_50_Revert,1,483,NaN,bear,car,NaN,car1-chair3.png
AlexNet_topK_50_Revert,1,484,NaN,cat,car,NaN,car1-clock2.png
AlexNet_topK_50_Revert,1,485,NaN,bear,car,NaN,car1-dog2.png
AlexNet_topK_50_Revert,1,486,NaN,cat,car,NaN,car1-keyboard2.png
AlexNet_topK_50_Revert,1,487,NaN,bear,car,NaN,car1-oven3.png
AlexNet_topK_50_Revert,1,488,NaN,cat,car,NaN,car10-bicycle2.png
AlexNet_topK_50_Revert,1,489,NaN,cat,car,NaN,car10-bottle3.png
AlexNet_topK_50_Revert,1,490,NaN,cat,car,NaN,car10-car1.png
AlexNet_topK_50_Revert,1,491,NaN,elephant,car,NaN,car10-chair1.png
AlexNet_topK_50_Revert,1,492,NaN,bear,car,NaN,car10-dog1.png
AlexNet_topK_50_Revert,1,493,NaN,bear,car,NaN,car10-elephant2.png
AlexNet_topK_50_Revert,1,494,NaN,elephant,car,NaN,car10-keyboard2.png
AlexNet_topK_50_Revert,1,495,NaN,bear,car,NaN,car2-bird3.png
AlexNet_topK_50_Revert,1,496,NaN,cat,car,NaN,car2-car3.png
AlexNet_topK_50_Revert,1,497,NaN,bear,car,NaN,car2-cat3.png
AlexNet_topK_50_Revert,1,498,NaN,cat,car,NaN,car2-chair1.png
AlexNet_topK_50_Revert,1,499,NaN,bear,car,NaN,car2-knife3.png
AlexNet_topK_50_Revert,1,500,NaN,bear,car,NaN,car3-airplane3.png
AlexNet_topK_50_Revert,1,501,NaN,bear,car,NaN,car3-bird2.png
AlexNet_topK_50_Revert,1,502,NaN,chair,car,NaN,car3-boat1.png
AlexNet_topK_50_Revert,1,503,NaN,cat,car,NaN,car3-bottle3.png
AlexNet_topK_50_Revert,1,504,NaN,bear,car,NaN,car3-dog2.png
AlexNet_topK_50_Revert,1,505,NaN,cat,car,NaN,car3-elephant3.png
AlexNet_topK_50_Revert,1,506,NaN,bear,car,NaN,car3-oven3.png
AlexNet_topK_50_Revert,1,507,NaN,bear,car,NaN,car3-truck1.png
AlexNet_topK_50_Revert,1,508,NaN,elephant,car,NaN,car4-bear3.png
AlexNet_topK_50_Revert,1,509,NaN,cat,car,NaN,car4-bicycle3.png
AlexNet_topK_50_Revert,1,510,NaN,bear,car,NaN,car4-bird1.png
AlexNet_topK_50_Revert,1,511,NaN,chair,car,NaN,car4-boat1.png
AlexNet_topK_50_Revert,1,512,NaN,chair,car,NaN,car4-bottle1.png
AlexNet_topK_50_Revert,1,513,NaN,elephant,car,NaN,car4-car2.png
AlexNet_topK_50_Revert,1,514,NaN,bear,car,NaN,car4-cat3.png
AlexNet_topK_50_Revert,1,515,NaN,bear,car,NaN,car4-clock1.png
AlexNet_topK_50_Revert,1,516,NaN,cat,car,NaN,car4-elephant3.png
AlexNet_topK_50_Revert,1,517,NaN,bear,car,NaN,car4-oven2.png
AlexNet_topK_50_Revert,1,518,NaN,bear,car,NaN,car5-airplane3.png
AlexNet_topK_50_Revert,1,519,NaN,bear,car,NaN,car5-bear3.png
AlexNet_topK_50_Revert,1,520,NaN,cat,car,NaN,car5-bottle1.png
AlexNet_topK_50_Revert,1,521,NaN,bear,car,NaN,car5-cat1.png
AlexNet_topK_50_Revert,1,522,NaN,elephant,car,NaN,car5-keyboard3.png
AlexNet_topK_50_Revert,1,523,NaN,bear,car,NaN,car5-knife2.png
AlexNet_topK_50_Revert,1,524,NaN,bear,car,NaN,car5-oven2.png
AlexNet_topK_50_Revert,1,525,NaN,bear,car,NaN,car5-truck3.png
AlexNet_topK_50_Revert,1,526,NaN,bear,car,NaN,car6-bear1.png
AlexNet_topK_50_Revert,1,527,NaN,bear,car,NaN,car6-bicycle3.png
AlexNet_topK_50_Revert,1,528,NaN,cat,car,NaN,car6-boat1.png
AlexNet_topK_50_Revert,1,529,NaN,bear,car,NaN,car6-bottle1.png
AlexNet_topK_50_Revert,1,530,NaN,cat,car,NaN,car6-chair3.png
AlexNet_topK_50_Revert,1,531,NaN,bear,car,NaN,car6-elephant3.png
AlexNet_topK_50_Revert,1,532,NaN,bear,car,NaN,car6-knife1.png
AlexNet_topK_50_Revert,1,533,NaN,bear,car,NaN,car6-truck3.png
AlexNet_topK_50_Revert,1,534,NaN,bear,car,NaN,car7-airplane2.png
AlexNet_topK_50_Revert,1,535,NaN,bear,car,NaN,car7-bear1.png
AlexNet_topK_50_Revert,1,536,NaN,bear,car,NaN,car7-bird3.png
AlexNet_topK_50_Revert,1,537,NaN,cat,car,NaN,car7-boat3.png
AlexNet_topK_50_Revert,1,538,NaN,cat,car,NaN,car7-car1.png
AlexNet_topK_50_Revert,1,539,NaN,bear,car,NaN,car7-clock1.png
AlexNet_topK_50_Revert,1,540,NaN,bear,car,NaN,car7-dog3.png
AlexNet_topK_50_Revert,1,541,NaN,bear,car,NaN,car7-elephant3.png
AlexNet_topK_50_Revert,1,542,NaN,elephant,car,NaN,car7-keyboard3.png
AlexNet_topK_50_Revert,1,543,NaN,bear,car,NaN,car7-oven2.png
AlexNet_topK_50_Revert,1,544,NaN,bear,car,NaN,car8-airplane3.png
AlexNet_topK_50_Revert,1,545,NaN,bear,car,NaN,car8-bear1.png
AlexNet_topK_50_Revert,1,546,NaN,bear,car,NaN,car8-bicycle2.png
AlexNet_topK_50_Revert,1,547,NaN,cat,car,NaN,car8-boat3.png
AlexNet_topK_50_Revert,1,548,NaN,bear,car,NaN,car8-cat1.png
AlexNet_topK_50_Revert,1,549,NaN,elephant,car,NaN,car8-chair1.png
AlexNet_topK_50_Revert,1,550,NaN,bear,car,NaN,car8-clock2.png
AlexNet_topK_50_Revert,1,551,NaN,cat,car,NaN,car8-dog1.png
AlexNet_topK_50_Revert,1,552,NaN,bear,car,NaN,car8-knife2.png
AlexNet_topK_50_Revert,1,553,NaN,bear,car,NaN,car8-truck3.png
AlexNet_topK_50_Revert,1,554,NaN,cat,car,NaN,car9-bicycle2.png
AlexNet_topK_50_Revert,1,555,NaN,elephant,car,NaN,car9-bird1.png
AlexNet_topK_50_Revert,1,556,NaN,bear,car,NaN,car9-cat1.png
AlexNet_topK_50_Revert,1,557,NaN,bear,car,NaN,car9-clock2.png
AlexNet_topK_50_Revert,1,558,NaN,bear,car,NaN,car9-keyboard2.png
AlexNet_topK_50_Revert,1,559,NaN,bear,car,NaN,car9-knife1.png
AlexNet_topK_50_Revert,1,560,NaN,bear,car,NaN,car9-truck3.png
AlexNet_topK_50_Revert,1,561,NaN,cat,cat,NaN,cat1-airplane1.png
AlexNet_topK_50_Revert,1,562,NaN,bear,cat,NaN,cat1-bird1.png
AlexNet_topK_50_Revert,1,563,NaN,cat,cat,NaN,cat1-boat1.png
AlexNet_topK_50_Revert,1,564,NaN,cat,cat,NaN,cat1-car2.png
AlexNet_topK_50_Revert,1,565,NaN,bear,cat,NaN,cat1-cat3.png
AlexNet_topK_50_Revert,1,566,NaN,elephant,cat,NaN,cat1-chair2.png
AlexNet_topK_50_Revert,1,567,NaN,bear,cat,NaN,cat1-dog1.png
AlexNet_topK_50_Revert,1,568,NaN,elephant,cat,NaN,cat1-keyboard3.png
AlexNet_topK_50_Revert,1,569,NaN,bear,cat,NaN,cat1-oven1.png
AlexNet_topK_50_Revert,1,570,NaN,bear,cat,NaN,cat10-airplane3.png
AlexNet_topK_50_Revert,1,571,NaN,bear,cat,NaN,cat10-bear1.png
AlexNet_topK_50_Revert,1,572,NaN,cat,cat,NaN,cat10-bicycle1.png
AlexNet_topK_50_Revert,1,573,NaN,bear,cat,NaN,cat10-bird2.png
AlexNet_topK_50_Revert,1,574,NaN,bear,cat,NaN,cat10-bottle1.png
AlexNet_topK_50_Revert,1,575,NaN,bear,cat,NaN,cat10-clock1.png
AlexNet_topK_50_Revert,1,576,NaN,cat,cat,NaN,cat10-elephant3.png
AlexNet_topK_50_Revert,1,577,NaN,bear,cat,NaN,cat10-keyboard1.png
AlexNet_topK_50_Revert,1,578,NaN,bear,cat,NaN,cat10-oven2.png
AlexNet_topK_50_Revert,1,579,NaN,elephant,cat,NaN,cat2-boat2.png
AlexNet_topK_50_Revert,1,580,NaN,cat,cat,NaN,cat2-bottle3.png
AlexNet_topK_50_Revert,1,581,NaN,bear,cat,NaN,cat2-car3.png
AlexNet_topK_50_Revert,1,582,NaN,bear,cat,NaN,cat2-cat1.png
AlexNet_topK_50_Revert,1,583,NaN,bear,cat,NaN,cat2-elephant1.png
AlexNet_topK_50_Revert,1,584,NaN,bear,cat,NaN,cat2-knife3.png
AlexNet_topK_50_Revert,1,585,NaN,cat,cat,NaN,cat2-truck3.png
AlexNet_topK_50_Revert,1,586,NaN,bear,cat,NaN,cat3-bear2.png
AlexNet_topK_50_Revert,1,587,NaN,cat,cat,NaN,cat3-bicycle1.png
AlexNet_topK_50_Revert,1,588,NaN,bear,cat,NaN,cat3-cat1.png
AlexNet_topK_50_Revert,1,589,NaN,bear,cat,NaN,cat3-elephant2.png
AlexNet_topK_50_Revert,1,590,NaN,bear,cat,NaN,cat3-oven2.png
AlexNet_topK_50_Revert,1,591,NaN,cat,cat,NaN,cat3-truck3.png
AlexNet_topK_50_Revert,1,592,NaN,cat,cat,NaN,cat4-airplane1.png
AlexNet_topK_50_Revert,1,593,NaN,bear,cat,NaN,cat4-bird2.png
AlexNet_topK_50_Revert,1,594,NaN,elephant,cat,NaN,cat4-car2.png
AlexNet_topK_50_Revert,1,595,NaN,bear,cat,NaN,cat4-cat3.png
AlexNet_topK_50_Revert,1,596,NaN,bear,cat,NaN,cat4-chair2.png
AlexNet_topK_50_Revert,1,597,NaN,bear,cat,NaN,cat4-clock2.png
AlexNet_topK_50_Revert,1,598,NaN,bear,cat,NaN,cat4-dog3.png
AlexNet_topK_50_Revert,1,599,NaN,elephant,cat,NaN,cat4-keyboard2.png
AlexNet_topK_50_Revert,1,600,NaN,bear,cat,NaN,cat4-knife1.png
AlexNet_topK_50_Revert,1,601,NaN,cat,cat,NaN,cat4-oven1.png
AlexNet_topK_50_Revert,1,602,NaN,bear,cat,NaN,cat4-truck3.png
AlexNet_topK_50_Revert,1,603,NaN,cat,cat,NaN,cat5-airplane2.png
AlexNet_topK_50_Revert,1,604,NaN,bear,cat,NaN,cat5-bear2.png
AlexNet_topK_50_Revert,1,605,NaN,cat,cat,NaN,cat5-bicycle3.png
AlexNet_topK_50_Revert,1,606,NaN,chair,cat,NaN,cat5-boat1.png
AlexNet_topK_50_Revert,1,607,NaN,bear,cat,NaN,cat5-bottle1.png
AlexNet_topK_50_Revert,1,608,NaN,cat,cat,NaN,cat5-car2.png
AlexNet_topK_50_Revert,1,609,NaN,bear,cat,NaN,cat5-chair3.png
AlexNet_topK_50_Revert,1,610,NaN,bear,cat,NaN,cat5-dog3.png
AlexNet_topK_50_Revert,1,611,NaN,bear,cat,NaN,cat5-elephant2.png
AlexNet_topK_50_Revert,1,612,NaN,elephant,cat,NaN,cat5-keyboard3.png
AlexNet_topK_50_Revert,1,613,NaN,bear,cat,NaN,cat5-knife2.png
AlexNet_topK_50_Revert,1,614,NaN,bear,cat,NaN,cat6-bear1.png
AlexNet_topK_50_Revert,1,615,NaN,bear,cat,NaN,cat6-chair3.png
AlexNet_topK_50_Revert,1,616,NaN,bear,cat,NaN,cat6-clock3.png
AlexNet_topK_50_Revert,1,617,NaN,bear,cat,NaN,cat6-keyboard3.png
AlexNet_topK_50_Revert,1,618,NaN,bear,cat,NaN,cat6-oven1.png
AlexNet_topK_50_Revert,1,619,NaN,cat,cat,NaN,cat7-airplane2.png
AlexNet_topK_50_Revert,1,620,NaN,cat,cat,NaN,cat7-boat3.png
AlexNet_topK_50_Revert,1,621,NaN,cat,cat,NaN,cat7-bottle1.png
AlexNet_topK_50_Revert,1,622,NaN,cat,cat,NaN,cat7-clock3.png
AlexNet_topK_50_Revert,1,623,NaN,bear,cat,NaN,cat7-dog3.png
AlexNet_topK_50_Revert,1,624,NaN,bear,cat,NaN,cat7-elephant1.png
AlexNet_topK_50_Revert,1,625,NaN,bear,cat,NaN,cat7-knife2.png
AlexNet_topK_50_Revert,1,626,NaN,bear,cat,NaN,cat7-truck2.png
AlexNet_topK_50_Revert,1,627,NaN,bear,cat,NaN,cat8-bear1.png
AlexNet_topK_50_Revert,1,628,NaN,bear,cat,NaN,cat8-bicycle3.png
AlexNet_topK_50_Revert,1,629,NaN,cat,cat,NaN,cat8-bird2.png
AlexNet_topK_50_Revert,1,630,NaN,cat,cat,NaN,cat8-car2.png
AlexNet_topK_50_Revert,1,631,NaN,cat,cat,NaN,cat9-bicycle1.png
AlexNet_topK_50_Revert,1,632,NaN,bear,cat,NaN,cat9-bird3.png
AlexNet_topK_50_Revert,1,633,NaN,bear,cat,NaN,cat9-boat2.png
AlexNet_topK_50_Revert,1,634,NaN,bear,cat,NaN,cat9-bottle2.png
AlexNet_topK_50_Revert,1,635,NaN,elephant,cat,NaN,cat9-cat3.png
AlexNet_topK_50_Revert,1,636,NaN,bear,cat,NaN,cat9-chair2.png
AlexNet_topK_50_Revert,1,637,NaN,elephant,cat,NaN,cat9-clock2.png
AlexNet_topK_50_Revert,1,638,NaN,bear,cat,NaN,cat9-dog2.png
AlexNet_topK_50_Revert,1,639,NaN,bear,cat,NaN,cat9-knife2.png
AlexNet_topK_50_Revert,1,640,NaN,bear,cat,NaN,cat9-truck1.png
AlexNet_topK_50_Revert,1,641,NaN,cat,chair,NaN,chair1-airplane2.png
AlexNet_topK_50_Revert,1,642,NaN,bear,chair,NaN,chair1-bear1.png
AlexNet_topK_50_Revert,1,643,NaN,bear,chair,NaN,chair1-cat3.png
AlexNet_topK_50_Revert,1,644,NaN,cat,chair,NaN,chair1-chair1.png
AlexNet_topK_50_Revert,1,645,NaN,bear,chair,NaN,chair1-clock2.png
AlexNet_topK_50_Revert,1,646,NaN,bear,chair,NaN,chair1-dog1.png
AlexNet_topK_50_Revert,1,647,NaN,bear,chair,NaN,chair1-elephant1.png
AlexNet_topK_50_Revert,1,648,NaN,bear,chair,NaN,chair1-oven3.png
AlexNet_topK_50_Revert,1,649,NaN,bear,chair,NaN,chair1-truck3.png
AlexNet_topK_50_Revert,1,650,NaN,cat,chair,NaN,chair10-airplane2.png
AlexNet_topK_50_Revert,1,651,NaN,cat,chair,NaN,chair10-bicycle1.png
AlexNet_topK_50_Revert,1,652,NaN,bear,chair,NaN,chair10-bird3.png
AlexNet_topK_50_Revert,1,653,NaN,cat,chair,NaN,chair10-bottle3.png
AlexNet_topK_50_Revert,1,654,NaN,cat,chair,NaN,chair10-car2.png
AlexNet_topK_50_Revert,1,655,NaN,bear,chair,NaN,chair10-cat1.png
AlexNet_topK_50_Revert,1,656,NaN,cat,chair,NaN,chair10-clock1.png
AlexNet_topK_50_Revert,1,657,NaN,cat,chair,NaN,chair10-dog1.png
AlexNet_topK_50_Revert,1,658,NaN,cat,chair,NaN,chair10-oven1.png
AlexNet_topK_50_Revert,1,659,NaN,bear,chair,NaN,chair2-bear2.png
AlexNet_topK_50_Revert,1,660,NaN,cat,chair,NaN,chair2-boat1.png
AlexNet_topK_50_Revert,1,661,NaN,bear,chair,NaN,chair2-keyboard2.png
AlexNet_topK_50_Revert,1,662,NaN,bear,chair,NaN,chair2-knife1.png
AlexNet_topK_50_Revert,1,663,NaN,bear,chair,NaN,chair3-airplane2.png
AlexNet_topK_50_Revert,1,664,NaN,cat,chair,NaN,chair3-bicycle3.png
AlexNet_topK_50_Revert,1,665,NaN,cat,chair,NaN,chair3-bottle3.png
AlexNet_topK_50_Revert,1,666,NaN,bear,chair,NaN,chair3-car3.png
AlexNet_topK_50_Revert,1,667,NaN,bear,chair,NaN,chair3-dog2.png
AlexNet_topK_50_Revert,1,668,NaN,bear,chair,NaN,chair3-knife1.png
AlexNet_topK_50_Revert,1,669,NaN,bear,chair,NaN,chair4-bear2.png
AlexNet_topK_50_Revert,1,670,NaN,bear,chair,NaN,chair4-cat2.png
AlexNet_topK_50_Revert,1,671,NaN,cat,chair,NaN,chair4-chair3.png
AlexNet_topK_50_Revert,1,672,NaN,bear,chair,NaN,chair4-keyboard2.png
AlexNet_topK_50_Revert,1,673,NaN,bear,chair,NaN,chair4-oven2.png
AlexNet_topK_50_Revert,1,674,NaN,bear,chair,NaN,chair4-truck2.png
AlexNet_topK_50_Revert,1,675,NaN,cat,chair,NaN,chair5-bicycle1.png
AlexNet_topK_50_Revert,1,676,NaN,bear,chair,NaN,chair5-bird1.png
AlexNet_topK_50_Revert,1,677,NaN,cat,chair,NaN,chair5-boat3.png
AlexNet_topK_50_Revert,1,678,NaN,cat,chair,NaN,chair5-bottle3.png
AlexNet_topK_50_Revert,1,679,NaN,cat,chair,NaN,chair5-car1.png
AlexNet_topK_50_Revert,1,680,NaN,elephant,chair,NaN,chair5-cat3.png
AlexNet_topK_50_Revert,1,681,NaN,bear,chair,NaN,chair5-clock2.png
AlexNet_topK_50_Revert,1,682,NaN,bear,chair,NaN,chair5-keyboard2.png
AlexNet_topK_50_Revert,1,683,NaN,elephant,chair,NaN,chair5-knife3.png
AlexNet_topK_50_Revert,1,684,NaN,bear,chair,NaN,chair5-oven2.png
AlexNet_topK_50_Revert,1,685,NaN,bear,chair,NaN,chair5-truck3.png
AlexNet_topK_50_Revert,1,686,NaN,bear,chair,NaN,chair6-bird2.png
AlexNet_topK_50_Revert,1,687,NaN,bear,chair,NaN,chair6-dog1.png
AlexNet_topK_50_Revert,1,688,NaN,elephant,chair,NaN,chair6-elephant2.png
AlexNet_topK_50_Revert,1,689,NaN,bear,chair,NaN,chair6-truck2.png
AlexNet_topK_50_Revert,1,690,NaN,elephant,chair,NaN,chair7-airplane1.png
AlexNet_topK_50_Revert,1,691,NaN,bear,chair,NaN,chair7-bird1.png
AlexNet_topK_50_Revert,1,692,NaN,cat,chair,NaN,chair7-boat3.png
AlexNet_topK_50_Revert,1,693,NaN,bear,chair,NaN,chair7-bottle1.png
AlexNet_topK_50_Revert,1,694,NaN,elephant,chair,NaN,chair7-car2.png
AlexNet_topK_50_Revert,1,695,NaN,bear,chair,NaN,chair7-cat1.png
AlexNet_topK_50_Revert,1,696,NaN,cat,chair,NaN,chair7-chair1.png
AlexNet_topK_50_Revert,1,697,NaN,bear,chair,NaN,chair7-clock3.png
AlexNet_topK_50_Revert,1,698,NaN,cat,chair,NaN,chair7-elephant1.png
AlexNet_topK_50_Revert,1,699,NaN,bear,chair,NaN,chair7-knife2.png
AlexNet_topK_50_Revert,1,700,NaN,cat,chair,NaN,chair7-truck3.png
AlexNet_topK_50_Revert,1,701,NaN,bear,chair,NaN,chair8-airplane1.png
AlexNet_topK_50_Revert,1,702,NaN,bear,chair,NaN,chair8-bear1.png
AlexNet_topK_50_Revert,1,703,NaN,cat,chair,NaN,chair8-bicycle3.png
AlexNet_topK_50_Revert,1,704,NaN,cat,chair,NaN,chair8-boat1.png
AlexNet_topK_50_Revert,1,705,NaN,cat,chair,NaN,chair8-car1.png
AlexNet_topK_50_Revert,1,706,NaN,cat,chair,NaN,chair8-chair3.png
AlexNet_topK_50_Revert,1,707,NaN,bear,chair,NaN,chair8-clock3.png
AlexNet_topK_50_Revert,1,708,NaN,bear,chair,NaN,chair8-elephant1.png
AlexNet_topK_50_Revert,1,709,NaN,elephant,chair,NaN,chair8-keyboard3.png
AlexNet_topK_50_Revert,1,710,NaN,bear,chair,NaN,chair8-knife2.png
AlexNet_topK_50_Revert,1,711,NaN,cat,chair,NaN,chair8-oven1.png
AlexNet_topK_50_Revert,1,712,NaN,bear,chair,NaN,chair9-bear1.png
AlexNet_topK_50_Revert,1,713,NaN,cat,chair,NaN,chair9-bicycle3.png
AlexNet_topK_50_Revert,1,714,NaN,bear,chair,NaN,chair9-bird3.png
AlexNet_topK_50_Revert,1,715,NaN,bear,chair,NaN,chair9-boat2.png
AlexNet_topK_50_Revert,1,716,NaN,bear,chair,NaN,chair9-bottle3.png
AlexNet_topK_50_Revert,1,717,NaN,cat,chair,NaN,chair9-chair3.png
AlexNet_topK_50_Revert,1,718,NaN,bear,chair,NaN,chair9-dog2.png
AlexNet_topK_50_Revert,1,719,NaN,bear,chair,NaN,chair9-elephant1.png
AlexNet_topK_50_Revert,1,720,NaN,cat,chair,NaN,chair9-keyboard2.png
AlexNet_topK_50_Revert,1,721,NaN,bear,clock,NaN,clock1-bear1.png
AlexNet_topK_50_Revert,1,722,NaN,cat,clock,NaN,clock1-boat3.png
AlexNet_topK_50_Revert,1,723,NaN,cat,clock,NaN,clock1-car1.png
AlexNet_topK_50_Revert,1,724,NaN,cat,clock,NaN,clock1-clock2.png
AlexNet_topK_50_Revert,1,725,NaN,bear,clock,NaN,clock1-dog2.png
AlexNet_topK_50_Revert,1,726,NaN,elephant,clock,NaN,clock1-elephant2.png
AlexNet_topK_50_Revert,1,727,NaN,bear,clock,NaN,clock1-truck3.png
AlexNet_topK_50_Revert,1,728,NaN,cat,clock,NaN,clock10-airplane1.png
AlexNet_topK_50_Revert,1,729,NaN,bear,clock,NaN,clock10-bird3.png
AlexNet_topK_50_Revert,1,730,NaN,chair,clock,NaN,clock10-boat2.png
AlexNet_topK_50_Revert,1,731,NaN,bear,clock,NaN,clock10-bottle1.png
AlexNet_topK_50_Revert,1,732,NaN,bear,clock,NaN,clock10-cat1.png
AlexNet_topK_50_Revert,1,733,NaN,bear,clock,NaN,clock10-clock3.png
AlexNet_topK_50_Revert,1,734,NaN,bear,clock,NaN,clock10-dog3.png
AlexNet_topK_50_Revert,1,735,NaN,bear,clock,NaN,clock10-knife3.png
AlexNet_topK_50_Revert,1,736,NaN,bear,clock,NaN,clock10-oven2.png
AlexNet_topK_50_Revert,1,737,NaN,bear,clock,NaN,clock10-truck2.png
AlexNet_topK_50_Revert,1,738,NaN,cat,clock,NaN,clock2-bear2.png
AlexNet_topK_50_Revert,1,739,NaN,cat,clock,NaN,clock2-bicycle1.png
AlexNet_topK_50_Revert,1,740,NaN,cat,clock,NaN,clock2-bottle3.png
AlexNet_topK_50_Revert,1,741,NaN,bear,clock,NaN,clock2-clock3.png
AlexNet_topK_50_Revert,1,742,NaN,bear,clock,NaN,clock2-dog1.png
AlexNet_topK_50_Revert,1,743,NaN,bear,clock,NaN,clock2-elephant2.png
AlexNet_topK_50_Revert,1,744,NaN,bear,clock,NaN,clock2-knife1.png
AlexNet_topK_50_Revert,1,745,NaN,bear,clock,NaN,clock3-bear3.png
AlexNet_topK_50_Revert,1,746,NaN,cat,clock,NaN,clock3-bicycle2.png
AlexNet_topK_50_Revert,1,747,NaN,bear,clock,NaN,clock3-bird1.png
AlexNet_topK_50_Revert,1,748,NaN,bear,clock,NaN,clock3-car2.png
AlexNet_topK_50_Revert,1,749,NaN,bear,clock,NaN,clock3-cat1.png
AlexNet_topK_50_Revert,1,750,NaN,bear,clock,NaN,clock3-dog2.png
AlexNet_topK_50_Revert,1,751,NaN,cat,clock,NaN,clock3-elephant3.png
AlexNet_topK_50_Revert,1,752,NaN,elephant,clock,NaN,clock3-keyboard3.png
AlexNet_topK_50_Revert,1,753,NaN,cat,clock,NaN,clock4-airplane1.png
AlexNet_topK_50_Revert,1,754,NaN,bear,clock,NaN,clock4-bird3.png
AlexNet_topK_50_Revert,1,755,NaN,cat,clock,NaN,clock4-boat3.png
AlexNet_topK_50_Revert,1,756,NaN,cat,clock,NaN,clock4-bottle3.png
AlexNet_topK_50_Revert,1,757,NaN,elephant,clock,NaN,clock4-car2.png
AlexNet_topK_50_Revert,1,758,NaN,cat,clock,NaN,clock4-chair1.png
AlexNet_topK_50_Revert,1,759,NaN,bear,clock,NaN,clock4-elephant2.png
AlexNet_topK_50_Revert,1,760,NaN,cat,clock,NaN,clock4-knife1.png
AlexNet_topK_50_Revert,1,761,NaN,bear,clock,NaN,clock4-oven1.png
AlexNet_topK_50_Revert,1,762,NaN,cat,clock,NaN,clock5-airplane1.png
AlexNet_topK_50_Revert,1,763,NaN,cat,clock,NaN,clock5-bicycle1.png
AlexNet_topK_50_Revert,1,764,NaN,cat,clock,NaN,clock5-chair3.png
AlexNet_topK_50_Revert,1,765,NaN,bear,clock,NaN,clock5-clock2.png
AlexNet_topK_50_Revert,1,766,NaN,bear,clock,NaN,clock5-elephant2.png
AlexNet_topK_50_Revert,1,767,NaN,bear,clock,NaN,clock5-keyboard1.png
AlexNet_topK_50_Revert,1,768,NaN,bear,clock,NaN,clock5-oven1.png
AlexNet_topK_50_Revert,1,769,NaN,cat,clock,NaN,clock6-bicycle1.png
AlexNet_topK_50_Revert,1,770,NaN,bear,clock,NaN,clock6-bird3.png
AlexNet_topK_50_Revert,1,771,NaN,bear,clock,NaN,clock6-bottle1.png
AlexNet_topK_50_Revert,1,772,NaN,bear,clock,NaN,clock6-car2.png
AlexNet_topK_50_Revert,1,773,NaN,cat,clock,NaN,clock6-chair3.png
AlexNet_topK_50_Revert,1,774,NaN,bear,clock,NaN,clock6-clock2.png
AlexNet_topK_50_Revert,1,775,NaN,bear,clock,NaN,clock6-knife2.png
AlexNet_topK_50_Revert,1,776,NaN,cat,clock,NaN,clock6-oven1.png
AlexNet_topK_50_Revert,1,777,NaN,bear,clock,NaN,clock6-truck3.png
AlexNet_topK_50_Revert,1,778,NaN,bear,clock,NaN,clock7-bear2.png
AlexNet_topK_50_Revert,1,779,NaN,cat,clock,NaN,clock7-bicycle1.png
AlexNet_topK_50_Revert,1,780,NaN,cat,clock,NaN,clock7-boat3.png
AlexNet_topK_50_Revert,1,781,NaN,bear,clock,NaN,clock7-bottle2.png
AlexNet_topK_50_Revert,1,782,NaN,cat,clock,NaN,clock7-car1.png
AlexNet_topK_50_Revert,1,783,NaN,bear,clock,NaN,clock7-cat2.png
AlexNet_topK_50_Revert,1,784,NaN,bear,clock,NaN,clock7-dog2.png
AlexNet_topK_50_Revert,1,785,NaN,bear,clock,NaN,clock7-keyboard2.png
AlexNet_topK_50_Revert,1,786,NaN,chair,clock,NaN,clock7-truck3.png
AlexNet_topK_50_Revert,1,787,NaN,bear,clock,NaN,clock8-airplane2.png
AlexNet_topK_50_Revert,1,788,NaN,bear,clock,NaN,clock8-bear2.png
AlexNet_topK_50_Revert,1,789,NaN,cat,clock,NaN,clock8-boat1.png
AlexNet_topK_50_Revert,1,790,NaN,bear,clock,NaN,clock8-cat1.png
AlexNet_topK_50_Revert,1,791,NaN,elephant,clock,NaN,clock8-chair2.png
AlexNet_topK_50_Revert,1,792,NaN,cat,clock,NaN,clock8-keyboard1.png
AlexNet_topK_50_Revert,1,793,NaN,bear,clock,NaN,clock8-knife1.png
AlexNet_topK_50_Revert,1,794,NaN,bear,clock,NaN,clock8-oven3.png
AlexNet_topK_50_Revert,1,795,NaN,cat,clock,NaN,clock8-truck2.png
AlexNet_topK_50_Revert,1,796,NaN,cat,clock,NaN,clock9-airplane1.png
AlexNet_topK_50_Revert,1,797,NaN,cat,clock,NaN,clock9-bird2.png
AlexNet_topK_50_Revert,1,798,NaN,bear,clock,NaN,clock9-cat1.png
AlexNet_topK_50_Revert,1,799,NaN,cat,clock,NaN,clock9-chair3.png
AlexNet_topK_50_Revert,1,800,NaN,bear,clock,NaN,clock9-keyboard2.png
AlexNet_topK_50_Revert,1,801,NaN,bear,dog,NaN,dog1-airplane3.png
AlexNet_topK_50_Revert,1,802,NaN,cat,dog,NaN,dog1-bear1.png
AlexNet_topK_50_Revert,1,803,NaN,bear,dog,NaN,dog1-bird1.png
AlexNet_topK_50_Revert,1,804,NaN,cat,dog,NaN,dog1-boat3.png
AlexNet_topK_50_Revert,1,805,NaN,cat,dog,NaN,dog1-car2.png
AlexNet_topK_50_Revert,1,806,NaN,bear,dog,NaN,dog1-cat3.png
AlexNet_topK_50_Revert,1,807,NaN,cat,dog,NaN,dog1-chair1.png
AlexNet_topK_50_Revert,1,808,NaN,bear,dog,NaN,dog1-dog2.png
AlexNet_topK_50_Revert,1,809,NaN,bear,dog,NaN,dog1-knife3.png
AlexNet_topK_50_Revert,1,810,NaN,cat,dog,NaN,dog10-airplane1.png
AlexNet_topK_50_Revert,1,811,NaN,cat,dog,NaN,dog10-bicycle1.png
AlexNet_topK_50_Revert,1,812,NaN,cat,dog,NaN,dog10-bottle1.png
AlexNet_topK_50_Revert,1,813,NaN,cat,dog,NaN,dog10-car3.png
AlexNet_topK_50_Revert,1,814,NaN,bear,dog,NaN,dog10-clock1.png
AlexNet_topK_50_Revert,1,815,NaN,bear,dog,NaN,dog10-dog1.png
AlexNet_topK_50_Revert,1,816,NaN,bear,dog,NaN,dog10-elephant1.png
AlexNet_topK_50_Revert,1,817,NaN,bear,dog,NaN,dog10-keyboard2.png
AlexNet_topK_50_Revert,1,818,NaN,bear,dog,NaN,dog10-oven2.png
AlexNet_topK_50_Revert,1,819,NaN,bear,dog,NaN,dog10-truck2.png
AlexNet_topK_50_Revert,1,820,NaN,cat,dog,NaN,dog2-airplane2.png
AlexNet_topK_50_Revert,1,821,NaN,bear,dog,NaN,dog2-bicycle2.png
AlexNet_topK_50_Revert,1,822,NaN,bear,dog,NaN,dog2-bottle2.png
AlexNet_topK_50_Revert,1,823,NaN,bear,dog,NaN,dog2-cat1.png
AlexNet_topK_50_Revert,1,824,NaN,bear,dog,NaN,dog2-dog3.png
AlexNet_topK_50_Revert,1,825,NaN,bear,dog,NaN,dog2-knife3.png
AlexNet_topK_50_Revert,1,826,NaN,bear,dog,NaN,dog3-bear3.png
AlexNet_topK_50_Revert,1,827,NaN,bear,dog,NaN,dog3-bird2.png
AlexNet_topK_50_Revert,1,828,NaN,cat,dog,NaN,dog3-boat1.png
AlexNet_topK_50_Revert,1,829,NaN,cat,dog,NaN,dog3-clock1.png
AlexNet_topK_50_Revert,1,830,NaN,bear,dog,NaN,dog3-dog1.png
AlexNet_topK_50_Revert,1,831,NaN,elephant,dog,NaN,dog3-elephant2.png
AlexNet_topK_50_Revert,1,832,NaN,bear,dog,NaN,dog3-keyboard1.png
AlexNet_topK_50_Revert,1,833,NaN,bear,dog,NaN,dog3-knife3.png
AlexNet_topK_50_Revert,1,834,NaN,bear,dog,NaN,dog3-truck2.png
AlexNet_topK_50_Revert,1,835,NaN,bear,dog,NaN,dog4-airplane3.png
AlexNet_topK_50_Revert,1,836,NaN,cat,dog,NaN,dog4-bicycle1.png
AlexNet_topK_50_Revert,1,837,NaN,bear,dog,NaN,dog4-bird1.png
AlexNet_topK_50_Revert,1,838,NaN,bear,dog,NaN,dog4-bottle2.png
AlexNet_topK_50_Revert,1,839,NaN,bear,dog,NaN,dog4-cat3.png
AlexNet_topK_50_Revert,1,840,NaN,elephant,dog,NaN,dog4-chair1.png
AlexNet_topK_50_Revert,1,841,NaN,cat,dog,NaN,dog4-clock1.png
AlexNet_topK_50_Revert,1,842,NaN,bear,dog,NaN,dog4-elephant2.png
AlexNet_topK_50_Revert,1,843,NaN,elephant,dog,NaN,dog4-keyboard2.png
AlexNet_topK_50_Revert,1,844,NaN,cat,dog,NaN,dog4-oven1.png
AlexNet_topK_50_Revert,1,845,NaN,bear,dog,NaN,dog4-truck2.png
AlexNet_topK_50_Revert,1,846,NaN,bear,dog,NaN,dog5-bear3.png
AlexNet_topK_50_Revert,1,847,NaN,cat,dog,NaN,dog5-boat3.png
AlexNet_topK_50_Revert,1,848,NaN,cat,dog,NaN,dog5-car3.png
AlexNet_topK_50_Revert,1,849,NaN,bear,dog,NaN,dog5-elephant1.png
AlexNet_topK_50_Revert,1,850,NaN,bear,dog,NaN,dog5-knife2.png
AlexNet_topK_50_Revert,1,851,NaN,bear,dog,NaN,dog5-oven1.png
AlexNet_topK_50_Revert,1,852,NaN,bear,dog,NaN,dog5-truck2.png
AlexNet_topK_50_Revert,1,853,NaN,cat,dog,NaN,dog6-bicycle1.png
AlexNet_topK_50_Revert,1,854,NaN,bear,dog,NaN,dog6-bird1.png
AlexNet_topK_50_Revert,1,855,NaN,bear,dog,NaN,dog6-cat1.png
AlexNet_topK_50_Revert,1,856,NaN,bear,dog,NaN,dog6-clock1.png
AlexNet_topK_50_Revert,1,857,NaN,bear,dog,NaN,dog6-elephant2.png
AlexNet_topK_50_Revert,1,858,NaN,bear,dog,NaN,dog6-truck2.png
AlexNet_topK_50_Revert,1,859,NaN,bear,dog,NaN,dog7-bird3.png
AlexNet_topK_50_Revert,1,860,NaN,cat,dog,NaN,dog7-car2.png
AlexNet_topK_50_Revert,1,861,NaN,elephant,dog,NaN,dog7-chair2.png
AlexNet_topK_50_Revert,1,862,NaN,bear,dog,NaN,dog7-keyboard3.png
AlexNet_topK_50_Revert,1,863,NaN,bear,dog,NaN,dog7-knife3.png
AlexNet_topK_50_Revert,1,864,NaN,bear,dog,NaN,dog7-oven2.png
AlexNet_topK_50_Revert,1,865,NaN,bear,dog,NaN,dog8-bear3.png
AlexNet_topK_50_Revert,1,866,NaN,cat,dog,NaN,dog8-boat3.png
AlexNet_topK_50_Revert,1,867,NaN,bear,dog,NaN,dog8-bottle2.png
AlexNet_topK_50_Revert,1,868,NaN,cat,dog,NaN,dog8-chair3.png
AlexNet_topK_50_Revert,1,869,NaN,bear,dog,NaN,dog8-clock2.png
AlexNet_topK_50_Revert,1,870,NaN,bear,dog,NaN,dog8-dog3.png
AlexNet_topK_50_Revert,1,871,NaN,elephant,dog,NaN,dog8-keyboard3.png
AlexNet_topK_50_Revert,1,872,NaN,bear,dog,NaN,dog8-oven3.png
AlexNet_topK_50_Revert,1,873,NaN,bear,dog,NaN,dog9-airplane3.png
AlexNet_topK_50_Revert,1,874,NaN,bear,dog,NaN,dog9-bear3.png
AlexNet_topK_50_Revert,1,875,NaN,bear,dog,NaN,dog9-bicycle3.png
AlexNet_topK_50_Revert,1,876,NaN,cat,dog,NaN,dog9-boat1.png
AlexNet_topK_50_Revert,1,877,NaN,bear,dog,NaN,dog9-bottle1.png
AlexNet_topK_50_Revert,1,878,NaN,cat,dog,NaN,dog9-car1.png
AlexNet_topK_50_Revert,1,879,NaN,bear,dog,NaN,dog9-cat1.png
AlexNet_topK_50_Revert,1,880,NaN,bear,dog,NaN,dog9-chair2.png
AlexNet_topK_50_Revert,1,881,NaN,cat,elephant,NaN,elephant1-airplane2.png
AlexNet_topK_50_Revert,1,882,NaN,cat,elephant,NaN,elephant1-bear2.png
AlexNet_topK_50_Revert,1,883,NaN,elephant,elephant,NaN,elephant1-boat2.png
AlexNet_topK_50_Revert,1,884,NaN,bear,elephant,NaN,elephant1-bottle1.png
AlexNet_topK_50_Revert,1,885,NaN,cat,elephant,NaN,elephant1-car3.png
AlexNet_topK_50_Revert,1,886,NaN,cat,elephant,NaN,elephant1-chair1.png
AlexNet_topK_50_Revert,1,887,NaN,bear,elephant,NaN,elephant1-dog2.png
AlexNet_topK_50_Revert,1,888,NaN,bear,elephant,NaN,elephant1-keyboard3.png
AlexNet_topK_50_Revert,1,889,NaN,bear,elephant,NaN,elephant1-oven2.png
AlexNet_topK_50_Revert,1,890,NaN,bear,elephant,NaN,elephant10-bear1.png
AlexNet_topK_50_Revert,1,891,NaN,bear,elephant,NaN,elephant10-elephant1.png
AlexNet_topK_50_Revert,1,892,NaN,bear,elephant,NaN,elephant10-keyboard1.png
AlexNet_topK_50_Revert,1,893,NaN,bear,elephant,NaN,elephant10-knife3.png
AlexNet_topK_50_Revert,1,894,NaN,cat,elephant,NaN,elephant2-airplane3.png
AlexNet_topK_50_Revert,1,895,NaN,bear,elephant,NaN,elephant2-bear3.png
AlexNet_topK_50_Revert,1,896,NaN,elephant,elephant,NaN,elephant2-bird1.png
AlexNet_topK_50_Revert,1,897,NaN,cat,elephant,NaN,elephant2-boat1.png
AlexNet_topK_50_Revert,1,898,NaN,cat,elephant,NaN,elephant2-bottle3.png
AlexNet_topK_50_Revert,1,899,NaN,bear,elephant,NaN,elephant2-cat1.png
AlexNet_topK_50_Revert,1,900,NaN,cat,elephant,NaN,elephant2-clock1.png
AlexNet_topK_50_Revert,1,901,NaN,bear,elephant,NaN,elephant2-elephant3.png
AlexNet_topK_50_Revert,1,902,NaN,elephant,elephant,NaN,elephant2-keyboard3.png
AlexNet_topK_50_Revert,1,903,NaN,bear,elephant,NaN,elephant2-truck2.png
AlexNet_topK_50_Revert,1,904,NaN,bear,elephant,NaN,elephant3-cat2.png
AlexNet_topK_50_Revert,1,905,NaN,cat,elephant,NaN,elephant3-chair1.png
AlexNet_topK_50_Revert,1,906,NaN,bear,elephant,NaN,elephant3-keyboard2.png
AlexNet_topK_50_Revert,1,907,NaN,bear,elephant,NaN,elephant3-knife1.png
AlexNet_topK_50_Revert,1,908,NaN,bear,elephant,NaN,elephant3-oven1.png
AlexNet_topK_50_Revert,1,909,NaN,chair,elephant,NaN,elephant3-truck1.png
AlexNet_topK_50_Revert,1,910,NaN,cat,elephant,NaN,elephant4-bicycle2.png
AlexNet_topK_50_Revert,1,911,NaN,bear,elephant,NaN,elephant4-bird1.png
AlexNet_topK_50_Revert,1,912,NaN,cat,elephant,NaN,elephant4-boat3.png
AlexNet_topK_50_Revert,1,913,NaN,cat,elephant,NaN,elephant4-car3.png
AlexNet_topK_50_Revert,1,914,NaN,cat,elephant,NaN,elephant4-chair3.png
AlexNet_topK_50_Revert,1,915,NaN,cat,elephant,NaN,elephant4-clock3.png
AlexNet_topK_50_Revert,1,916,NaN,bear,elephant,NaN,elephant4-oven1.png
AlexNet_topK_50_Revert,1,917,NaN,bear,elephant,NaN,elephant5-bear2.png
AlexNet_topK_50_Revert,1,918,NaN,bear,elephant,NaN,elephant5-bicycle3.png
AlexNet_topK_50_Revert,1,919,NaN,cat,elephant,NaN,elephant5-bottle2.png
AlexNet_topK_50_Revert,1,920,NaN,chair,elephant,NaN,elephant5-car1.png
AlexNet_topK_50_Revert,1,921,NaN,bear,elephant,NaN,elephant5-chair3.png
AlexNet_topK_50_Revert,1,922,NaN,bear,elephant,NaN,elephant5-elephant1.png
AlexNet_topK_50_Revert,1,923,NaN,cat,elephant,NaN,elephant5-truck1.png
AlexNet_topK_50_Revert,1,924,NaN,cat,elephant,NaN,elephant6-bicycle1.png
AlexNet_topK_50_Revert,1,925,NaN,bear,elephant,NaN,elephant6-bird1.png
AlexNet_topK_50_Revert,1,926,NaN,cat,elephant,NaN,elephant6-bottle2.png
AlexNet_topK_50_Revert,1,927,NaN,bear,elephant,NaN,elephant6-car3.png
AlexNet_topK_50_Revert,1,928,NaN,bear,elephant,NaN,elephant6-cat2.png
AlexNet_topK_50_Revert,1,929,NaN,bear,elephant,NaN,elephant6-dog2.png
AlexNet_topK_50_Revert,1,930,NaN,bear,elephant,NaN,elephant6-knife2.png
AlexNet_topK_50_Revert,1,931,NaN,bear,elephant,NaN,elephant6-oven1.png
AlexNet_topK_50_Revert,1,932,NaN,cat,elephant,NaN,elephant6-truck3.png
AlexNet_topK_50_Revert,1,933,NaN,bear,elephant,NaN,elephant7-airplane3.png
AlexNet_topK_50_Revert,1,934,NaN,bear,elephant,NaN,elephant7-bear3.png
AlexNet_topK_50_Revert,1,935,NaN,bear,elephant,NaN,elephant7-bird1.png
AlexNet_topK_50_Revert,1,936,NaN,cat,elephant,NaN,elephant7-bottle3.png
AlexNet_topK_50_Revert,1,937,NaN,bear,elephant,NaN,elephant7-car3.png
AlexNet_topK_50_Revert,1,938,NaN,bear,elephant,NaN,elephant7-cat1.png
AlexNet_topK_50_Revert,1,939,NaN,bear,elephant,NaN,elephant7-clock2.png
AlexNet_topK_50_Revert,1,940,NaN,cat,elephant,NaN,elephant7-dog1.png
AlexNet_topK_50_Revert,1,941,NaN,bear,elephant,NaN,elephant7-keyboard3.png
AlexNet_topK_50_Revert,1,942,NaN,bear,elephant,NaN,elephant7-knife2.png
AlexNet_topK_50_Revert,1,943,NaN,bear,elephant,NaN,elephant8-airplane3.png
AlexNet_topK_50_Revert,1,944,NaN,cat,elephant,NaN,elephant8-bicycle3.png
AlexNet_topK_50_Revert,1,945,NaN,bear,elephant,NaN,elephant8-bird2.png
AlexNet_topK_50_Revert,1,946,NaN,elephant,elephant,NaN,elephant8-boat2.png
AlexNet_topK_50_Revert,1,947,NaN,bear,elephant,NaN,elephant8-cat1.png
AlexNet_topK_50_Revert,1,948,NaN,bear,elephant,NaN,elephant8-clock2.png
AlexNet_topK_50_Revert,1,949,NaN,cat,elephant,NaN,elephant8-dog1.png
AlexNet_topK_50_Revert,1,950,NaN,cat,elephant,NaN,elephant8-elephant1.png
AlexNet_topK_50_Revert,1,951,NaN,bear,elephant,NaN,elephant8-knife2.png
AlexNet_topK_50_Revert,1,952,NaN,bear,elephant,NaN,elephant8-oven3.png
AlexNet_topK_50_Revert,1,953,NaN,elephant,elephant,NaN,elephant8-truck3.png
AlexNet_topK_50_Revert,1,954,NaN,bear,elephant,NaN,elephant9-airplane2.png
AlexNet_topK_50_Revert,1,955,NaN,cat,elephant,NaN,elephant9-bicycle2.png
AlexNet_topK_50_Revert,1,956,NaN,cat,elephant,NaN,elephant9-boat3.png
AlexNet_topK_50_Revert,1,957,NaN,chair,elephant,NaN,elephant9-chair2.png
AlexNet_topK_50_Revert,1,958,NaN,bear,elephant,NaN,elephant9-clock3.png
AlexNet_topK_50_Revert,1,959,NaN,bear,elephant,NaN,elephant9-dog3.png
AlexNet_topK_50_Revert,1,960,NaN,elephant,elephant,NaN,elephant9-elephant3.png
AlexNet_topK_50_Revert,1,961,NaN,cat,keyboard,NaN,keyboard1-airplane2.png
AlexNet_topK_50_Revert,1,962,NaN,bear,keyboard,NaN,keyboard1-bear2.png
AlexNet_topK_50_Revert,1,963,NaN,bear,keyboard,NaN,keyboard1-bird2.png
AlexNet_topK_50_Revert,1,964,NaN,cat,keyboard,NaN,keyboard1-car3.png
AlexNet_topK_50_Revert,1,965,NaN,bear,keyboard,NaN,keyboard1-chair2.png
AlexNet_topK_50_Revert,1,966,NaN,bear,keyboard,NaN,keyboard1-clock1.png
AlexNet_topK_50_Revert,1,967,NaN,bear,keyboard,NaN,keyboard1-dog3.png
AlexNet_topK_50_Revert,1,968,NaN,cat,keyboard,NaN,keyboard1-elephant3.png
AlexNet_topK_50_Revert,1,969,NaN,bear,keyboard,NaN,keyboard10-airplane3.png
AlexNet_topK_50_Revert,1,970,NaN,cat,keyboard,NaN,keyboard10-boat2.png
AlexNet_topK_50_Revert,1,971,NaN,cat,keyboard,NaN,keyboard10-car1.png
AlexNet_topK_50_Revert,1,972,NaN,bear,keyboard,NaN,keyboard10-keyboard1.png
AlexNet_topK_50_Revert,1,973,NaN,bear,keyboard,NaN,keyboard10-oven3.png
AlexNet_topK_50_Revert,1,974,NaN,cat,keyboard,NaN,keyboard10-truck1.png
AlexNet_topK_50_Revert,1,975,NaN,cat,keyboard,NaN,keyboard2-bicycle3.png
AlexNet_topK_50_Revert,1,976,NaN,bear,keyboard,NaN,keyboard2-bottle1.png
AlexNet_topK_50_Revert,1,977,NaN,bear,keyboard,NaN,keyboard2-clock1.png
AlexNet_topK_50_Revert,1,978,NaN,bear,keyboard,NaN,keyboard2-elephant1.png
AlexNet_topK_50_Revert,1,979,NaN,bear,keyboard,NaN,keyboard2-knife1.png
AlexNet_topK_50_Revert,1,980,NaN,cat,keyboard,NaN,keyboard3-bicycle2.png
AlexNet_topK_50_Revert,1,981,NaN,bear,keyboard,NaN,keyboard3-bird3.png
AlexNet_topK_50_Revert,1,982,NaN,cat,keyboard,NaN,keyboard3-boat1.png
AlexNet_topK_50_Revert,1,983,NaN,cat,keyboard,NaN,keyboard3-car2.png
AlexNet_topK_50_Revert,1,984,NaN,bear,keyboard,NaN,keyboard3-cat1.png
AlexNet_topK_50_Revert,1,985,NaN,bear,keyboard,NaN,keyboard3-clock3.png
AlexNet_topK_50_Revert,1,986,NaN,bear,keyboard,NaN,keyboard3-elephant2.png
AlexNet_topK_50_Revert,1,987,NaN,bear,keyboard,NaN,keyboard4-bird1.png
AlexNet_topK_50_Revert,1,988,NaN,bear,keyboard,NaN,keyboard4-bottle2.png
AlexNet_topK_50_Revert,1,989,NaN,bear,keyboard,NaN,keyboard4-cat2.png
AlexNet_topK_50_Revert,1,990,NaN,bear,keyboard,NaN,keyboard4-clock2.png
AlexNet_topK_50_Revert,1,991,NaN,bear,keyboard,NaN,keyboard4-keyboard2.png
AlexNet_topK_50_Revert,1,992,NaN,bear,keyboard,NaN,keyboard4-knife2.png
AlexNet_topK_50_Revert,1,993,NaN,bear,keyboard,NaN,keyboard4-oven2.png
AlexNet_topK_50_Revert,1,994,NaN,cat,keyboard,NaN,keyboard4-truck3.png
AlexNet_topK_50_Revert,1,995,NaN,elephant,keyboard,NaN,keyboard5-airplane3.png
AlexNet_topK_50_Revert,1,996,NaN,bear,keyboard,NaN,keyboard5-bear3.png
AlexNet_topK_50_Revert,1,997,NaN,bear,keyboard,NaN,keyboard5-bicycle1.png
AlexNet_topK_50_Revert,1,998,NaN,bear,keyboard,NaN,keyboard5-bird3.png
AlexNet_topK_50_Revert,1,999,NaN,bear,keyboard,NaN,keyboard5-bottle1.png
AlexNet_topK_50_Revert,1,1000,NaN,bear,keyboard,NaN,keyboard5-cat1.png
AlexNet_topK_50_Revert,1,1001,NaN,bear,keyboard,NaN,keyboard5-dog3.png
AlexNet_topK_50_Revert,1,1002,NaN,bear,keyboard,NaN,keyboard5-keyboard1.png
AlexNet_topK_50_Revert,1,1003,NaN,bear,keyboard,NaN,keyboard5-knife2.png
AlexNet_topK_50_Revert,1,1004,NaN,elephant,keyboard,NaN,keyboard5-oven2.png
AlexNet_topK_50_Revert,1,1005,NaN,cat,keyboard,NaN,keyboard6-bear2.png
AlexNet_topK_50_Revert,1,1006,NaN,cat,keyboard,NaN,keyboard6-bicycle1.png
AlexNet_topK_50_Revert,1,1007,NaN,bear,keyboard,NaN,keyboard6-boat2.png
AlexNet_topK_50_Revert,1,1008,NaN,bear,keyboard,NaN,keyboard6-bottle2.png
AlexNet_topK_50_Revert,1,1009,NaN,bear,keyboard,NaN,keyboard6-car2.png
AlexNet_topK_50_Revert,1,1010,NaN,cat,keyboard,NaN,keyboard6-chair1.png
AlexNet_topK_50_Revert,1,1011,NaN,bear,keyboard,NaN,keyboard6-dog2.png
AlexNet_topK_50_Revert,1,1012,NaN,bear,keyboard,NaN,keyboard6-elephant1.png
AlexNet_topK_50_Revert,1,1013,NaN,bear,keyboard,NaN,keyboard6-knife2.png
AlexNet_topK_50_Revert,1,1014,NaN,bear,keyboard,NaN,keyboard7-bear2.png
AlexNet_topK_50_Revert,1,1015,NaN,cat,keyboard,NaN,keyboard7-boat2.png
AlexNet_topK_50_Revert,1,1016,NaN,cat,keyboard,NaN,keyboard7-bottle1.png
AlexNet_topK_50_Revert,1,1017,NaN,bear,keyboard,NaN,keyboard7-car3.png
AlexNet_topK_50_Revert,1,1018,NaN,bear,keyboard,NaN,keyboard7-chair3.png
AlexNet_topK_50_Revert,1,1019,NaN,bear,keyboard,NaN,keyboard7-clock3.png
AlexNet_topK_50_Revert,1,1020,NaN,cat,keyboard,NaN,keyboard7-dog1.png
AlexNet_topK_50_Revert,1,1021,NaN,bear,keyboard,NaN,keyboard7-knife1.png
AlexNet_topK_50_Revert,1,1022,NaN,bear,keyboard,NaN,keyboard7-oven2.png
AlexNet_topK_50_Revert,1,1023,NaN,bear,keyboard,NaN,keyboard7-truck2.png
AlexNet_topK_50_Revert,1,1024,NaN,cat,keyboard,NaN,keyboard8-airplane2.png
AlexNet_topK_50_Revert,1,1025,NaN,elephant,keyboard,NaN,keyboard8-cat3.png
AlexNet_topK_50_Revert,1,1026,NaN,bear,keyboard,NaN,keyboard8-chair2.png
AlexNet_topK_50_Revert,1,1027,NaN,bear,keyboard,NaN,keyboard8-dog3.png
AlexNet_topK_50_Revert,1,1028,NaN,bear,keyboard,NaN,keyboard8-keyboard2.png
AlexNet_topK_50_Revert,1,1029,NaN,bear,keyboard,NaN,keyboard8-oven1.png
AlexNet_topK_50_Revert,1,1030,NaN,cat,keyboard,NaN,keyboard8-truck3.png
AlexNet_topK_50_Revert,1,1031,NaN,cat,keyboard,NaN,keyboard9-airplane3.png
AlexNet_topK_50_Revert,1,1032,NaN,bear,keyboard,NaN,keyboard9-bear2.png
AlexNet_topK_50_Revert,1,1033,NaN,cat,keyboard,NaN,keyboard9-bicycle2.png
AlexNet_topK_50_Revert,1,1034,NaN,bear,keyboard,NaN,keyboard9-bird1.png
AlexNet_topK_50_Revert,1,1035,NaN,elephant,keyboard,NaN,keyboard9-boat2.png
AlexNet_topK_50_Revert,1,1036,NaN,bear,keyboard,NaN,keyboard9-cat1.png
AlexNet_topK_50_Revert,1,1037,NaN,elephant,keyboard,NaN,keyboard9-chair2.png
AlexNet_topK_50_Revert,1,1038,NaN,bear,keyboard,NaN,keyboard9-elephant2.png
AlexNet_topK_50_Revert,1,1039,NaN,bear,keyboard,NaN,keyboard9-keyboard2.png
AlexNet_topK_50_Revert,1,1040,NaN,cat,keyboard,NaN,keyboard9-truck3.png
AlexNet_topK_50_Revert,1,1041,NaN,cat,knife,NaN,knife1-airplane1.png
AlexNet_topK_50_Revert,1,1042,NaN,bear,knife,NaN,knife1-bird2.png
AlexNet_topK_50_Revert,1,1043,NaN,cat,knife,NaN,knife1-car3.png
AlexNet_topK_50_Revert,1,1044,NaN,cat,knife,NaN,knife1-chair1.png
AlexNet_topK_50_Revert,1,1045,NaN,bear,knife,NaN,knife1-clock2.png
AlexNet_topK_50_Revert,1,1046,NaN,bear,knife,NaN,knife1-dog1.png
AlexNet_topK_50_Revert,1,1047,NaN,bear,knife,NaN,knife1-elephant1.png
AlexNet_topK_50_Revert,1,1048,NaN,elephant,knife,NaN,knife1-keyboard3.png
AlexNet_topK_50_Revert,1,1049,NaN,cat,knife,NaN,knife1-oven1.png
AlexNet_topK_50_Revert,1,1050,NaN,bear,knife,NaN,knife1-truck2.png
AlexNet_topK_50_Revert,1,1051,NaN,bear,knife,NaN,knife10-bear3.png
AlexNet_topK_50_Revert,1,1052,NaN,cat,knife,NaN,knife10-chair1.png
AlexNet_topK_50_Revert,1,1053,NaN,bear,knife,NaN,knife10-dog1.png
AlexNet_topK_50_Revert,1,1054,NaN,bear,knife,NaN,knife10-elephant3.png
AlexNet_topK_50_Revert,1,1055,NaN,elephant,knife,NaN,knife10-keyboard3.png
AlexNet_topK_50_Revert,1,1056,NaN,bear,knife,NaN,knife10-knife1.png
AlexNet_topK_50_Revert,1,1057,NaN,bear,knife,NaN,knife10-oven3.png
AlexNet_topK_50_Revert,1,1058,NaN,bear,knife,NaN,knife2-bear2.png
AlexNet_topK_50_Revert,1,1059,NaN,bear,knife,NaN,knife2-bicycle3.png
AlexNet_topK_50_Revert,1,1060,NaN,bear,knife,NaN,knife2-bird1.png
AlexNet_topK_50_Revert,1,1061,NaN,bear,knife,NaN,knife2-bottle2.png
AlexNet_topK_50_Revert,1,1062,NaN,bear,knife,NaN,knife2-car3.png
AlexNet_topK_50_Revert,1,1063,NaN,bear,knife,NaN,knife2-cat3.png
AlexNet_topK_50_Revert,1,1064,NaN,bear,knife,NaN,knife2-dog1.png
AlexNet_topK_50_Revert,1,1065,NaN,bear,knife,NaN,knife2-elephant2.png
AlexNet_topK_50_Revert,1,1066,NaN,bear,knife,NaN,knife2-truck2.png
AlexNet_topK_50_Revert,1,1067,NaN,bear,knife,NaN,knife3-bear2.png
AlexNet_topK_50_Revert,1,1068,NaN,bear,knife,NaN,knife3-cat1.png
AlexNet_topK_50_Revert,1,1069,NaN,bear,knife,NaN,knife3-clock2.png
AlexNet_topK_50_Revert,1,1070,NaN,elephant,knife,NaN,knife3-keyboard3.png
AlexNet_topK_50_Revert,1,1071,NaN,bear,knife,NaN,knife3-knife1.png
AlexNet_topK_50_Revert,1,1072,NaN,bear,knife,NaN,knife4-airplane3.png
AlexNet_topK_50_Revert,1,1073,NaN,bear,knife,NaN,knife4-bear1.png
AlexNet_topK_50_Revert,1,1074,NaN,cat,knife,NaN,knife4-boat1.png
AlexNet_topK_50_Revert,1,1075,NaN,cat,knife,NaN,knife4-car2.png
AlexNet_topK_50_Revert,1,1076,NaN,bear,knife,NaN,knife4-cat2.png
AlexNet_topK_50_Revert,1,1077,NaN,bear,knife,NaN,knife4-clock3.png
AlexNet_topK_50_Revert,1,1078,NaN,bear,knife,NaN,knife4-keyboard1.png
AlexNet_topK_50_Revert,1,1079,NaN,bear,knife,NaN,knife4-knife2.png
AlexNet_topK_50_Revert,1,1080,NaN,bear,knife,NaN,knife4-oven2.png
AlexNet_topK_50_Revert,1,1081,NaN,cat,knife,NaN,knife5-bicycle2.png
AlexNet_topK_50_Revert,1,1082,NaN,bear,knife,NaN,knife5-cat2.png
AlexNet_topK_50_Revert,1,1083,NaN,bear,knife,NaN,knife5-clock1.png
AlexNet_topK_50_Revert,1,1084,NaN,bear,knife,NaN,knife5-dog1.png
AlexNet_topK_50_Revert,1,1085,NaN,elephant,knife,NaN,knife5-keyboard3.png
AlexNet_topK_50_Revert,1,1086,NaN,bear,knife,NaN,knife5-knife3.png
AlexNet_topK_50_Revert,1,1087,NaN,bear,knife,NaN,knife5-oven2.png
AlexNet_topK_50_Revert,1,1088,NaN,bear,knife,NaN,knife5-truck3.png
AlexNet_topK_50_Revert,1,1089,NaN,cat,knife,NaN,knife6-airplane1.png
AlexNet_topK_50_Revert,1,1090,NaN,cat,knife,NaN,knife6-bicycle1.png
AlexNet_topK_50_Revert,1,1091,NaN,bear,knife,NaN,knife6-bird1.png
AlexNet_topK_50_Revert,1,1092,NaN,cat,knife,NaN,knife6-boat3.png
AlexNet_topK_50_Revert,1,1093,NaN,cat,knife,NaN,knife6-bottle3.png
AlexNet_topK_50_Revert,1,1094,NaN,bear,knife,NaN,knife6-chair3.png
AlexNet_topK_50_Revert,1,1095,NaN,bear,knife,NaN,knife6-clock2.png
AlexNet_topK_50_Revert,1,1096,NaN,bear,knife,NaN,knife6-dog2.png
AlexNet_topK_50_Revert,1,1097,NaN,bear,knife,NaN,knife6-knife1.png
AlexNet_topK_50_Revert,1,1098,NaN,bear,knife,NaN,knife6-oven3.png
AlexNet_topK_50_Revert,1,1099,NaN,cat,knife,NaN,knife6-truck1.png
AlexNet_topK_50_Revert,1,1100,NaN,bear,knife,NaN,knife7-airplane3.png
AlexNet_topK_50_Revert,1,1101,NaN,bear,knife,NaN,knife7-bird3.png
AlexNet_topK_50_Revert,1,1102,NaN,cat,knife,NaN,knife7-boat3.png
AlexNet_topK_50_Revert,1,1103,NaN,cat,knife,NaN,knife7-bottle3.png
AlexNet_topK_50_Revert,1,1104,NaN,elephant,knife,NaN,knife7-car2.png
AlexNet_topK_50_Revert,1,1105,NaN,bear,knife,NaN,knife7-chair2.png
AlexNet_topK_50_Revert,1,1106,NaN,elephant,knife,NaN,knife7-elephant2.png
AlexNet_topK_50_Revert,1,1107,NaN,cat,knife,NaN,knife8-bicycle1.png
AlexNet_topK_50_Revert,1,1108,NaN,chair,knife,NaN,knife8-boat1.png
AlexNet_topK_50_Revert,1,1109,NaN,cat,knife,NaN,knife8-bottle3.png
AlexNet_topK_50_Revert,1,1110,NaN,cat,knife,NaN,knife8-car2.png
AlexNet_topK_50_Revert,1,1111,NaN,bear,knife,NaN,knife8-cat2.png
AlexNet_topK_50_Revert,1,1112,NaN,bear,knife,NaN,knife8-truck3.png
AlexNet_topK_50_Revert,1,1113,NaN,cat,knife,NaN,knife9-airplane2.png
AlexNet_topK_50_Revert,1,1114,NaN,bear,knife,NaN,knife9-bear3.png
AlexNet_topK_50_Revert,1,1115,NaN,bear,knife,NaN,knife9-bicycle1.png
AlexNet_topK_50_Revert,1,1116,NaN,bear,knife,NaN,knife9-bird1.png
AlexNet_topK_50_Revert,1,1117,NaN,cat,knife,NaN,knife9-boat1.png
AlexNet_topK_50_Revert,1,1118,NaN,bear,knife,NaN,knife9-bottle2.png
AlexNet_topK_50_Revert,1,1119,NaN,bear,knife,NaN,knife9-chair1.png
AlexNet_topK_50_Revert,1,1120,NaN,bear,knife,NaN,knife9-elephant2.png
AlexNet_topK_50_Revert,1,1121,NaN,bear,oven,NaN,oven1-bird3.png
AlexNet_topK_50_Revert,1,1122,NaN,cat,oven,NaN,oven1-boat3.png
AlexNet_topK_50_Revert,1,1123,NaN,bear,oven,NaN,oven1-cat1.png
AlexNet_topK_50_Revert,1,1124,NaN,bear,oven,NaN,oven1-clock3.png
AlexNet_topK_50_Revert,1,1125,NaN,bear,oven,NaN,oven1-dog3.png
AlexNet_topK_50_Revert,1,1126,NaN,cat,oven,NaN,oven10-airplane2.png
AlexNet_topK_50_Revert,1,1127,NaN,bear,oven,NaN,oven10-bear1.png
AlexNet_topK_50_Revert,1,1128,NaN,cat,oven,NaN,oven10-bicycle1.png
AlexNet_topK_50_Revert,1,1129,NaN,cat,oven,NaN,oven10-boat2.png
AlexNet_topK_50_Revert,1,1130,NaN,bear,oven,NaN,oven10-cat2.png
AlexNet_topK_50_Revert,1,1131,NaN,bear,oven,NaN,oven10-oven3.png
AlexNet_topK_50_Revert,1,1132,NaN,bear,oven,NaN,oven10-truck2.png
AlexNet_topK_50_Revert,1,1133,NaN,bear,oven,NaN,oven2-bear3.png
AlexNet_topK_50_Revert,1,1134,NaN,cat,oven,NaN,oven2-bicycle1.png
AlexNet_topK_50_Revert,1,1135,NaN,bear,oven,NaN,oven2-bird2.png
AlexNet_topK_50_Revert,1,1136,NaN,bear,oven,NaN,oven2-boat3.png
AlexNet_topK_50_Revert,1,1137,NaN,cat,oven,NaN,oven2-bottle1.png
AlexNet_topK_50_Revert,1,1138,NaN,elephant,oven,NaN,oven2-car1.png
AlexNet_topK_50_Revert,1,1139,NaN,cat,oven,NaN,oven2-chair1.png
AlexNet_topK_50_Revert,1,1140,NaN,bear,oven,NaN,oven2-dog3.png
AlexNet_topK_50_Revert,1,1141,NaN,bear,oven,NaN,oven2-oven3.png
AlexNet_topK_50_Revert,1,1142,NaN,bear,oven,NaN,oven2-truck3.png
AlexNet_topK_50_Revert,1,1143,NaN,chair,oven,NaN,oven3-airplane1.png
AlexNet_topK_50_Revert,1,1144,NaN,cat,oven,NaN,oven3-bear2.png
AlexNet_topK_50_Revert,1,1145,NaN,bear,oven,NaN,oven3-boat3.png
AlexNet_topK_50_Revert,1,1146,NaN,cat,oven,NaN,oven3-bottle3.png
AlexNet_topK_50_Revert,1,1147,NaN,elephant,oven,NaN,oven3-car2.png
AlexNet_topK_50_Revert,1,1148,NaN,bear,oven,NaN,oven3-cat2.png
AlexNet_topK_50_Revert,1,1149,NaN,bear,oven,NaN,oven3-clock3.png
AlexNet_topK_50_Revert,1,1150,NaN,bear,oven,NaN,oven3-elephant3.png
AlexNet_topK_50_Revert,1,1151,NaN,bear,oven,NaN,oven3-knife1.png
AlexNet_topK_50_Revert,1,1152,NaN,cat,oven,NaN,oven3-truck1.png
AlexNet_topK_50_Revert,1,1153,NaN,cat,oven,NaN,oven4-bicycle2.png
AlexNet_topK_50_Revert,1,1154,NaN,bear,oven,NaN,oven4-bottle2.png
AlexNet_topK_50_Revert,1,1155,NaN,cat,oven,NaN,oven4-car1.png
AlexNet_topK_50_Revert,1,1156,NaN,cat,oven,NaN,oven4-chair1.png
AlexNet_topK_50_Revert,1,1157,NaN,cat,oven,NaN,oven4-clock2.png
AlexNet_topK_50_Revert,1,1158,NaN,bear,oven,NaN,oven4-dog1.png
AlexNet_topK_50_Revert,1,1159,NaN,bear,oven,NaN,oven4-elephant3.png
AlexNet_topK_50_Revert,1,1160,NaN,bear,oven,NaN,oven4-keyboard3.png
AlexNet_topK_50_Revert,1,1161,NaN,bear,oven,NaN,oven4-knife2.png
AlexNet_topK_50_Revert,1,1162,NaN,cat,oven,NaN,oven4-truck3.png
AlexNet_topK_50_Revert,1,1163,NaN,bear,oven,NaN,oven5-airplane1.png
AlexNet_topK_50_Revert,1,1164,NaN,cat,oven,NaN,oven5-bicycle1.png
AlexNet_topK_50_Revert,1,1165,NaN,bear,oven,NaN,oven5-bird1.png
AlexNet_topK_50_Revert,1,1166,NaN,cat,oven,NaN,oven5-bottle3.png
AlexNet_topK_50_Revert,1,1167,NaN,bear,oven,NaN,oven5-dog3.png
AlexNet_topK_50_Revert,1,1168,NaN,cat,oven,NaN,oven5-elephant1.png
AlexNet_topK_50_Revert,1,1169,NaN,bear,oven,NaN,oven5-keyboard2.png
AlexNet_topK_50_Revert,1,1170,NaN,bear,oven,NaN,oven6-airplane3.png
AlexNet_topK_50_Revert,1,1171,NaN,cat,oven,NaN,oven6-bear2.png
AlexNet_topK_50_Revert,1,1172,NaN,cat,oven,NaN,oven6-bicycle1.png
AlexNet_topK_50_Revert,1,1173,NaN,bear,oven,NaN,oven6-bird1.png
AlexNet_topK_50_Revert,1,1174,NaN,cat,oven,NaN,oven6-chair3.png
AlexNet_topK_50_Revert,1,1175,NaN,bear,oven,NaN,oven6-elephant2.png
AlexNet_topK_50_Revert,1,1176,NaN,bear,oven,NaN,oven6-knife3.png
AlexNet_topK_50_Revert,1,1177,NaN,bear,oven,NaN,oven6-oven3.png
AlexNet_topK_50_Revert,1,1178,NaN,cat,oven,NaN,oven6-truck1.png
AlexNet_topK_50_Revert,1,1179,NaN,cat,oven,NaN,oven7-bottle1.png
AlexNet_topK_50_Revert,1,1180,NaN,cat,oven,NaN,oven7-car3.png
AlexNet_topK_50_Revert,1,1181,NaN,bear,oven,NaN,oven7-cat1.png
AlexNet_topK_50_Revert,1,1182,NaN,cat,oven,NaN,oven7-clock2.png
AlexNet_topK_50_Revert,1,1183,NaN,bear,oven,NaN,oven7-dog2.png
AlexNet_topK_50_Revert,1,1184,NaN,cat,oven,NaN,oven7-elephant1.png
AlexNet_topK_50_Revert,1,1185,NaN,bear,oven,NaN,oven7-keyboard1.png
AlexNet_topK_50_Revert,1,1186,NaN,bear,oven,NaN,oven7-oven1.png
AlexNet_topK_50_Revert,1,1187,NaN,bear,oven,NaN,oven8-cat3.png
AlexNet_topK_50_Revert,1,1188,NaN,cat,oven,NaN,oven8-chair1.png
AlexNet_topK_50_Revert,1,1189,NaN,bear,oven,NaN,oven8-keyboard3.png
AlexNet_topK_50_Revert,1,1190,NaN,bear,oven,NaN,oven8-knife2.png
AlexNet_topK_50_Revert,1,1191,NaN,cat,oven,NaN,oven9-airplane2.png
AlexNet_topK_50_Revert,1,1192,NaN,bear,oven,NaN,oven9-bear2.png
AlexNet_topK_50_Revert,1,1193,NaN,bear,oven,NaN,oven9-bird3.png
AlexNet_topK_50_Revert,1,1194,NaN,cat,oven,NaN,oven9-boat2.png
AlexNet_topK_50_Revert,1,1195,NaN,cat,oven,NaN,oven9-car2.png
AlexNet_topK_50_Revert,1,1196,NaN,cat,oven,NaN,oven9-chair1.png
AlexNet_topK_50_Revert,1,1197,NaN,bear,oven,NaN,oven9-clock2.png
AlexNet_topK_50_Revert,1,1198,NaN,bear,oven,NaN,oven9-keyboard1.png
AlexNet_topK_50_Revert,1,1199,NaN,bear,oven,NaN,oven9-knife3.png
AlexNet_topK_50_Revert,1,1200,NaN,bear,oven,NaN,oven9-oven1.png
AlexNet_topK_50_Revert,1,1201,NaN,bear,truck,NaN,truck1-bear1.png
AlexNet_topK_50_Revert,1,1202,NaN,cat,truck,NaN,truck1-bicycle3.png
AlexNet_topK_50_Revert,1,1203,NaN,bear,truck,NaN,truck1-bird1.png
AlexNet_topK_50_Revert,1,1204,NaN,cat,truck,NaN,truck1-car3.png
AlexNet_topK_50_Revert,1,1205,NaN,bear,truck,NaN,truck1-cat1.png
AlexNet_topK_50_Revert,1,1206,NaN,bear,truck,NaN,truck1-chair2.png
AlexNet_topK_50_Revert,1,1207,NaN,bear,truck,NaN,truck1-clock3.png
AlexNet_topK_50_Revert,1,1208,NaN,bear,truck,NaN,truck1-dog1.png
AlexNet_topK_50_Revert,1,1209,NaN,bear,truck,NaN,truck1-knife1.png
AlexNet_topK_50_Revert,1,1210,NaN,cat,truck,NaN,truck10-airplane1.png
AlexNet_topK_50_Revert,1,1211,NaN,cat,truck,NaN,truck10-bicycle1.png
AlexNet_topK_50_Revert,1,1212,NaN,cat,truck,NaN,truck10-car3.png
AlexNet_topK_50_Revert,1,1213,NaN,bear,truck,NaN,truck10-clock1.png
AlexNet_topK_50_Revert,1,1214,NaN,bear,truck,NaN,truck10-elephant3.png
AlexNet_topK_50_Revert,1,1215,NaN,cat,truck,NaN,truck10-truck3.png
AlexNet_topK_50_Revert,1,1216,NaN,bear,truck,NaN,truck2-airplane3.png
AlexNet_topK_50_Revert,1,1217,NaN,cat,truck,NaN,truck2-bicycle2.png
AlexNet_topK_50_Revert,1,1218,NaN,bear,truck,NaN,truck2-bird2.png
AlexNet_topK_50_Revert,1,1219,NaN,cat,truck,NaN,truck2-boat3.png
AlexNet_topK_50_Revert,1,1220,NaN,cat,truck,NaN,truck2-bottle3.png
AlexNet_topK_50_Revert,1,1221,NaN,cat,truck,NaN,truck2-car3.png
AlexNet_topK_50_Revert,1,1222,NaN,cat,truck,NaN,truck2-chair1.png
AlexNet_topK_50_Revert,1,1223,NaN,cat,truck,NaN,truck2-clock1.png
AlexNet_topK_50_Revert,1,1224,NaN,cat,truck,NaN,truck2-elephant1.png
AlexNet_topK_50_Revert,1,1225,NaN,bear,truck,NaN,truck2-keyboard1.png
AlexNet_topK_50_Revert,1,1226,NaN,bear,truck,NaN,truck2-oven3.png
AlexNet_topK_50_Revert,1,1227,NaN,bear,truck,NaN,truck3-bear3.png
AlexNet_topK_50_Revert,1,1228,NaN,bear,truck,NaN,truck3-bicycle1.png
AlexNet_topK_50_Revert,1,1229,NaN,bear,truck,NaN,truck3-bird2.png
AlexNet_topK_50_Revert,1,1230,NaN,bear,truck,NaN,truck3-car3.png
AlexNet_topK_50_Revert,1,1231,NaN,bear,truck,NaN,truck3-cat1.png
AlexNet_topK_50_Revert,1,1232,NaN,bear,truck,NaN,truck3-chair2.png
AlexNet_topK_50_Revert,1,1233,NaN,bear,truck,NaN,truck3-clock3.png
AlexNet_topK_50_Revert,1,1234,NaN,bear,truck,NaN,truck3-dog3.png
AlexNet_topK_50_Revert,1,1235,NaN,elephant,truck,NaN,truck3-keyboard3.png
AlexNet_topK_50_Revert,1,1236,NaN,bear,truck,NaN,truck3-knife2.png
AlexNet_topK_50_Revert,1,1237,NaN,bear,truck,NaN,truck3-oven2.png
AlexNet_topK_50_Revert,1,1238,NaN,cat,truck,NaN,truck4-airplane3.png
AlexNet_topK_50_Revert,1,1239,NaN,bear,truck,NaN,truck4-bear1.png
AlexNet_topK_50_Revert,1,1240,NaN,cat,truck,NaN,truck4-boat3.png
AlexNet_topK_50_Revert,1,1241,NaN,elephant,truck,NaN,truck4-bottle2.png
AlexNet_topK_50_Revert,1,1242,NaN,cat,truck,NaN,truck4-knife1.png
AlexNet_topK_50_Revert,1,1243,NaN,bear,truck,NaN,truck4-oven2.png
AlexNet_topK_50_Revert,1,1244,NaN,cat,truck,NaN,truck5-airplane2.png
AlexNet_topK_50_Revert,1,1245,NaN,cat,truck,NaN,truck5-bird2.png
AlexNet_topK_50_Revert,1,1246,NaN,cat,truck,NaN,truck5-car1.png
AlexNet_topK_50_Revert,1,1247,NaN,elephant,truck,NaN,truck5-cat3.png
AlexNet_topK_50_Revert,1,1248,NaN,bear,truck,NaN,truck5-dog3.png
AlexNet_topK_50_Revert,1,1249,NaN,bear,truck,NaN,truck5-keyboard1.png
AlexNet_topK_50_Revert,1,1250,NaN,bear,truck,NaN,truck5-knife3.png
AlexNet_topK_50_Revert,1,1251,NaN,elephant,truck,NaN,truck5-truck1.png
AlexNet_topK_50_Revert,1,1252,NaN,cat,truck,NaN,truck6-bear2.png
AlexNet_topK_50_Revert,1,1253,NaN,cat,truck,NaN,truck6-bicycle1.png
AlexNet_topK_50_Revert,1,1254,NaN,elephant,truck,NaN,truck6-boat2.png
AlexNet_topK_50_Revert,1,1255,NaN,cat,truck,NaN,truck6-bottle3.png
AlexNet_topK_50_Revert,1,1256,NaN,bear,truck,NaN,truck6-cat2.png
AlexNet_topK_50_Revert,1,1257,NaN,bear,truck,NaN,truck6-clock2.png
AlexNet_topK_50_Revert,1,1258,NaN,bear,truck,NaN,truck6-dog2.png
AlexNet_topK_50_Revert,1,1259,NaN,bear,truck,NaN,truck6-knife2.png
AlexNet_topK_50_Revert,1,1260,NaN,bear,truck,NaN,truck6-oven3.png
AlexNet_topK_50_Revert,1,1261,NaN,bear,truck,NaN,truck6-truck2.png
AlexNet_topK_50_Revert,1,1262,NaN,bear,truck,NaN,truck7-bear2.png
AlexNet_topK_50_Revert,1,1263,NaN,bear,truck,NaN,truck7-bird2.png
AlexNet_topK_50_Revert,1,1264,NaN,cat,truck,NaN,truck7-boat1.png
AlexNet_topK_50_Revert,1,1265,NaN,bear,truck,NaN,truck7-chair2.png
AlexNet_topK_50_Revert,1,1266,NaN,elephant,truck,NaN,truck7-elephant2.png
AlexNet_topK_50_Revert,1,1267,NaN,bear,truck,NaN,truck7-keyboard3.png
AlexNet_topK_50_Revert,1,1268,NaN,bear,truck,NaN,truck7-oven2.png
AlexNet_topK_50_Revert,1,1269,NaN,bear,truck,NaN,truck7-truck2.png
AlexNet_topK_50_Revert,1,1270,NaN,elephant,truck,NaN,truck8-bottle2.png
AlexNet_topK_50_Revert,1,1271,NaN,bear,truck,NaN,truck8-cat2.png
AlexNet_topK_50_Revert,1,1272,NaN,bear,truck,NaN,truck8-dog3.png
AlexNet_topK_50_Revert,1,1273,NaN,bear,truck,NaN,truck8-elephant1.png
AlexNet_topK_50_Revert,1,1274,NaN,elephant,truck,NaN,truck8-keyboard2.png
AlexNet_topK_50_Revert,1,1275,NaN,cat,truck,NaN,truck9-airplane2.png
AlexNet_topK_50_Revert,1,1276,NaN,cat,truck,NaN,truck9-boat3.png
AlexNet_topK_50_Revert,1,1277,NaN,bear,truck,NaN,truck9-bottle2.png
AlexNet_topK_50_Revert,1,1278,NaN,bear,truck,NaN,truck9-chair3.png
AlexNet_topK_50_Revert,1,1279,NaN,bear,truck,NaN,truck9-elephant1.png
AlexNet_topK_50_Revert,1,1280,NaN,cat,truck,NaN,truck9-truck3.png
